Subject	Block	Trial	StimType	StimCategory	Stimulus	ACC	RESP	Sound	RT
181	1	1	standard	PL	ba_base_pl_w288.avi	0	none	none	999.000
181	1	2	oddball	PL	ba_redu_pl_w288.avi	0	none	none	999.000
181	1	3	oddball	PL	ba_redu_pl_w288.avi	0	none	none	999.000
181	1	4	oddball	PL	ba_redu_pl_w288.avi	0	none	none	999.000
181	1	5	oddball	PL	ba_redu_pl_w288.avi	0	none	none	999.000
181	1	6	oddball	PL	ba_redu_pl_w288.avi	0	none	none	999.000
181	1	7	standard	PL	ba_base_pl_w288.avi	0	none	none	999.000
181	1	8	standard	PL	ba_base_pl_w288.avi	0	none	none	999.000
181	1	9	standard	PL	ba_base_pl_w288.avi	0	none	none	999.000
181	1	10	standard	PL	ba_base_pl_w288.avi	0	none	none	999.000
181	1	11	standard	PL	ba_base_pl_w288.avi	0	none	none	999.000
181	1	12	standard	PL	ba_base_pl_w288.avi	0	none	none	999.000
181	1	13	oddball	PL	ba_redu_pl_w288.avi	0	none	none	999.000
181	1	14	oddball	PL	ba_redu_pl_w288.avi	0	none	none	999.000
181	1	15	oddball	PL	ba_redu_pl_w288.avi	0	none	none	999.000
181	1	16	oddball	PL	ba_redu_pl_w288.avi	0	none	none	999.000
181	1	17	standard	PL	ba_base_pl_w288.avi	0	space	none	2.040
181	1	18	oddball	PL	ba_redu_pl_w288.avi	0	none	none	999.000
181	1	19	standard	PL	ba_base_pl_w288.avi	0	none	none	999.000
181	1	20	standard	PL	ba_base_pl_w288.avi	0	none	none	999.000
181	1	21	standard	PL	ba_base_pl_w288.avi	0	none	none	999.000
181	1	22	standard	PL	ba_base_pl_w288.avi	0	none	none	999.000
181	1	23	oddball	PL	ba_redu_pl_w288.avi	0	none	none	999.000
181	1	24	standard	PL	ba_base_pl_w288.avi	0	none	none	999.000
181	1	25	standard	PL	ba_base_pl_w288.avi	0	none	none	999.000
181	1	26	oddball	PL	ba_redu_pl_w288.avi	0	none	none	999.000
181	1	27	oddball	PL	ba_redu_pl_w288.avi	0	none	none	999.000
181	1	28	standard	PL	ba_base_pl_w288.avi	0	none	none	999.000
181	1	29	oddball	PL	ba_redu_pl_w288.avi	0	none	none	999.000
181	1	30	standard	PL	ba_base_pl_w288.avi	0	none	none	999.000
181	1	31	oddball	PL	ba_redu_pl_w288.avi	0	none	none	999.000
181	1	32	oddball	PL	ba_redu_pl_w288.avi	0	none	none	999.000
181	1	33	oddball	PL	ba_redu_pl_w288.avi	0	none	none	999.000
181	1	34	standard	PL	ba_base_pl_w288.avi	0	none	none	999.000
181	1	35	standard	PL	ba_base_pl_w288.avi	0	none	none	999.000
181	1	36	standard	PL	ba_base_pl_w288.avi	0	none	none	999.000
181	1	37	standard	PL	ba_base_pl_w288.avi	0	none	none	999.000
181	1	38	oddball	PL	ba_redu_pl_w288.avi	0	none	none	999.000
181	1	39	standard	PL	ba_base_pl_w288.avi	0	none	none	999.000
181	1	40	standard	PL	ba_base_pl_w288.avi	0	none	none	999.000
181	1	41	oddball	PL	ba_redu_pl_w288.avi	0	none	none	999.000
181	1	42	oddball	PL	ba_redu_pl_w288.avi	0	none	none	999.000
181	1	43	oddball	PL	ba_redu_pl_w288.avi	0	none	none	999.000
181	1	44	standard	PL	ba_base_pl_w288.avi	0	none	none	999.000
181	1	45	oddball	PL	ba_redu_pl_w288.avi	0	space	none	1.891
181	1	46	standard	PL	ba_base_pl_w288.avi	0	none	none	999.000
181	1	47	standard	PL	ba_base_pl_w288.avi	0	none	none	999.000
181	1	48	standard	PL	ba_base_pl_w288.avi	0	none	none	999.000
181	1	49	standard	PL	ba_base_pl_w288.avi	0	none	none	999.000
181	1	50	standard	PL	ba_base_pl_w288.avi	0	none	none	999.000
181	1	51	oddball	PL	ba_redu_pl_w288.avi	0	none	none	999.000
181	1	52	oddball	PL	ba_redu_pl_w288.avi	0	none	none	999.000
181	1	53	oddball	PL	ba_redu_pl_w288.avi	0	none	none	999.000
181	1	54	standard	PL	ba_base_pl_w288.avi	0	none	none	999.000
181	1	55	oddball	PL	ba_redu_pl_w288.avi	0	none	none	999.000
181	1	56	oddball	PL	ba_redu_pl_w288.avi	0	none	none	999.000
181	1	57	standard	PL	ba_base_pl_w288.avi	0	none	none	999.000
181	1	58	oddball	PL	ba_redu_pl_w288.avi	0	none	none	999.000
181	1	59	oddball	PL	ba_redu_pl_w288.avi	0	none	none	999.000
181	1	60	standard	PL	ba_base_pl_w288.avi	0	none	none	999.000
181	1	61	oddball	PL	ba_redu_pl_w288.avi	0	none	none	999.000
181	1	62	oddball	PL	ba_redu_pl_w288.avi	0	none	none	999.000
181	1	63	oddball	PL	ba_redu_pl_w288.avi	0	none	none	999.000
181	1	64	oddball	PL	ba_redu_pl_w288.avi	0	none	none	999.000
181	1	65	oddball	PL	ba_redu_pl_w288.avi	0	none	none	999.000
181	1	66	oddball	PL	ba_redu_pl_w288.avi	0	none	none	999.000
181	1	67	standard	PL	ba_base_pl_w288.avi	0	none	none	999.000
181	1	68	standard	PL	ba_base_pl_w288.avi	0	none	none	999.000
181	1	69	standard	PL	ba_base_pl_w288.avi	0	none	none	999.000
181	1	70	oddball	PL	ba_redu_pl_w288.avi	0	none	none	999.000
181	1	71	oddball	PL	ba_redu_pl_w288.avi	0	none	none	999.000
181	1	72	standard	PL	ba_base_pl_w288.avi	0	none	none	999.000
181	1	73	oddball	PL	ba_redu_pl_w288.avi	0	none	none	999.000
181	1	74	standard	PL	ba_base_pl_w288.avi	0	none	none	999.000
181	1	75	oddball	PL	ba_redu_pl_w288.avi	0	none	none	999.000
181	1	76	standard	PL	ba_base_pl_w288.avi	0	none	none	999.000
181	1	77	oddball	PL	ba_redu_pl_w288.avi	0	none	none	999.000
181	1	78	standard	PL	ba_base_pl_w288.avi	0	none	none	999.000
181	1	79	standard	PL	ba_base_pl_w288.avi	0	none	none	999.000
181	1	80	standard	PL	ba_base_pl_w288.avi	0	none	none	999.000
181	1	81	standard	PL	ba_base_pl_w288.avi	0	none	none	999.000
181	1	82	standard	PL	ba_base_pl_w288.avi	0	none	none	999.000
181	1	83	oddball	PL	ba_redu_pl_w288.avi	0	none	none	999.000
181	1	84	standard	PL	ba_base_pl_w288.avi	0	none	none	999.000
181	1	85	oddball	PL	ba_redu_pl_w288.avi	0	none	none	999.000
181	1	86	oddball	PL	ba_redu_pl_w288.avi	0	none	none	999.000
181	1	87	standard	PL	ba_base_pl_w288.avi	0	none	none	999.000
181	1	88	standard	PL	ba_base_pl_w288.avi	0	none	none	999.000
181	1	89	oddball	PL	ba_redu_pl_w288.avi	0	none	none	999.000
181	1	90	oddball	PL	ba_redu_pl_w288.avi	0	none	none	999.000
181	1	91	standard	PL	ba_base_pl_w288.avi	0	none	none	999.000
181	1	92	standard	PL	ba_base_pl_w288.avi	0	none	none	999.000
181	1	93	oddball	PL	ba_redu_pl_w288.avi	0	none	none	999.000
181	1	94	oddball	PL	ba_redu_pl_w288.avi	0	none	none	999.000
181	1	95	oddball	PL	ba_redu_pl_w288.avi	0	none	none	999.000
181	1	96	oddball	PL	ba_redu_pl_w288.avi	0	none	none	999.000
181	1	97	standard	PL	ba_base_pl_w288.avi	0	none	none	999.000
181	1	98	oddball	PL	ba_redu_pl_w288.avi	0	none	none	999.000
181	1	99	standard	PL	ba_base_pl_w288.avi	0	none	none	999.000
181	1	100	standard	PL	ba_base_pl_w288.avi	0	none	none	999.000
181	2	1	oddball	AV	ba_redu_face_w960.avi	0	none	none	999.000
181	2	2	standard	AV	ba_base_face_w960.avi	0	none	none	999.000
181	2	3	standard	AV	ba_base_face_w960.avi	0	none	none	999.000
181	2	4	oddball	AV	ba_redu_face_w960.avi	0	j	BA	1.511
181	2	5	standard	AV	ba_base_face_w960.avi	0	none	none	999.000
181	2	6	oddball	AV	ba_redu_face_w960.avi	0	none	none	999.000
181	2	7	standard	AV	ba_base_face_w960.avi	0	none	none	999.000
181	2	8	oddball	AV	ba_redu_face_w960.avi	0	none	none	999.000
181	2	9	standard	AV	ba_base_face_w960.avi	0	none	none	999.000
181	2	10	standard	AV	ba_base_face_w960.avi	0	none	none	999.000
181	2	11	standard	AV	ba_base_face_w960.avi	0	none	none	999.000
181	2	12	standard	AV	ba_base_face_w960.avi	0	none	none	999.000
181	2	13	standard	AV	ba_base_face_w960.avi	0	none	none	999.000
181	2	14	oddball	AV	ba_redu_face_w960.avi	0	none	none	999.000
181	2	15	oddball	AV	ba_redu_face_w960.avi	0	none	none	999.000
181	2	16	oddball	AV	ba_redu_face_w960.avi	0	none	none	999.000
181	2	17	standard	AV	ba_base_face_w960.avi	0	none	none	999.000
181	2	18	oddball	AV	ba_redu_face_w960.avi	0	none	none	999.000
181	2	19	standard	AV	ba_base_face_w960.avi	0	none	none	999.000
181	2	20	oddball	AV	ba_redu_face_w960.avi	0	none	none	999.000
181	2	21	oddball	AV	ba_redu_face_w960.avi	0	none	none	999.000
181	2	22	oddball	AV	ba_redu_face_w960.avi	0	none	none	999.000
181	2	23	standard	AV	ba_base_face_w960.avi	0	none	none	999.000
181	2	24	standard	AV	ba_base_face_w960.avi	0	none	none	999.000
181	2	25	oddball	AV	ba_redu_face_w960.avi	0	none	none	999.000
181	2	26	oddball	AV	ba_redu_face_w960.avi	0	none	none	999.000
181	2	27	oddball	AV	ba_redu_face_w960.avi	0	none	none	999.000
181	2	28	standard	AV	ba_base_face_w960.avi	0	none	none	999.000
181	2	29	oddball	AV	ba_redu_face_w960.avi	0	none	none	999.000
181	2	30	standard	AV	ba_base_face_w960.avi	0	none	none	999.000
181	2	31	oddball	AV	ba_redu_face_w960.avi	0	none	none	999.000
181	2	32	oddball	AV	ba_redu_face_w960.avi	0	none	none	999.000
181	2	33	standard	AV	ba_base_face_w960.avi	0	none	none	999.000
181	2	34	oddball	AV	ba_redu_face_w960.avi	0	none	none	999.000
181	2	35	standard	AV	ba_base_face_w960.avi	0	none	none	999.000
181	2	36	oddball	AV	ba_redu_face_w960.avi	0	none	none	999.000
181	2	37	oddball	AV	ba_redu_face_w960.avi	0	none	none	999.000
181	2	38	standard	AV	ba_base_face_w960.avi	0	none	none	999.000
181	2	39	standard	AV	ba_base_face_w960.avi	0	none	none	999.000
181	2	40	standard	AV	ba_base_face_w960.avi	0	none	none	999.000
181	2	41	oddball	AV	ba_redu_face_w960.avi	0	none	none	999.000
181	2	42	standard	AV	ba_base_face_w960.avi	0	none	none	999.000
181	2	43	standard	AV	ba_base_face_w960.avi	0	none	none	999.000
181	2	44	standard	AV	ba_base_face_w960.avi	0	none	none	999.000
181	2	45	oddball	AV	ba_redu_face_w960.avi	0	none	none	999.000
181	2	46	oddball	AV	ba_redu_face_w960.avi	0	none	none	999.000
181	2	47	standard	AV	ba_base_face_w960.avi	0	none	none	999.000
181	2	48	oddball	AV	ba_redu_face_w960.avi	0	none	none	999.000
181	2	49	oddball	AV	ba_redu_face_w960.avi	0	none	none	999.000
181	2	50	oddball	AV	ba_redu_face_w960.avi	0	none	none	999.000
181	2	51	standard	AV	ba_base_face_w960.avi	0	none	none	999.000
181	2	52	oddball	AV	ba_redu_face_w960.avi	0	none	none	999.000
181	2	53	standard	AV	ba_base_face_w960.avi	0	none	none	999.000
181	2	54	oddball	AV	ba_redu_face_w960.avi	0	none	none	999.000
181	2	55	standard	AV	ba_base_face_w960.avi	0	none	none	999.000
181	2	56	standard	AV	ba_base_face_w960.avi	0	none	none	999.000
181	2	57	standard	AV	ba_base_face_w960.avi	0	none	none	999.000
181	2	58	oddball	AV	ba_redu_face_w960.avi	0	none	none	999.000
181	2	59	oddball	AV	ba_redu_face_w960.avi	0	none	none	999.000
181	2	60	oddball	AV	ba_redu_face_w960.avi	0	none	none	999.000
181	2	61	oddball	AV	ba_redu_face_w960.avi	0	none	none	999.000
181	2	62	standard	AV	ba_base_face_w960.avi	0	none	none	999.000
181	2	63	oddball	AV	ba_redu_face_w960.avi	0	none	none	999.000
181	2	64	standard	AV	ba_base_face_w960.avi	0	none	none	999.000
181	2	65	standard	AV	ba_base_face_w960.avi	0	none	none	999.000
181	2	66	standard	AV	ba_base_face_w960.avi	0	none	none	999.000
181	2	67	standard	AV	ba_base_face_w960.avi	0	none	none	999.000
181	2	68	standard	AV	ba_base_face_w960.avi	0	none	none	999.000
181	2	69	standard	AV	ba_base_face_w960.avi	0	none	none	999.000
181	2	70	oddball	AV	ba_redu_face_w960.avi	0	none	none	999.000
181	2	71	oddball	AV	ba_redu_face_w960.avi	0	none	none	999.000
181	2	72	oddball	AV	ba_redu_face_w960.avi	0	none	none	999.000
181	2	73	oddball	AV	ba_redu_face_w960.avi	0	none	none	999.000
181	2	74	oddball	AV	ba_redu_face_w960.avi	0	none	none	999.000
181	2	75	oddball	AV	ba_redu_face_w960.avi	0	none	none	999.000
181	2	76	standard	AV	ba_base_face_w960.avi	1	j	BA	1.318
181	2	77	standard	AV	ba_base_face_w960.avi	0	none	none	999.000
181	2	78	oddball	AV	ba_redu_face_w960.avi	0	none	none	999.000
181	2	79	standard	AV	ba_base_face_w960.avi	0	none	none	999.000
181	2	80	oddball	AV	ba_redu_face_w960.avi	0	none	none	999.000
181	2	81	oddball	AV	ba_redu_face_w960.avi	0	none	none	999.000
181	2	82	standard	AV	ba_base_face_w960.avi	0	none	none	999.000
181	2	83	standard	AV	ba_base_face_w960.avi	0	none	none	999.000
181	2	84	standard	AV	ba_base_face_w960.avi	0	none	none	999.000
181	2	85	oddball	AV	ba_redu_face_w960.avi	0	none	none	999.000
181	2	86	standard	AV	ba_base_face_w960.avi	0	none	none	999.000
181	2	87	oddball	AV	ba_redu_face_w960.avi	0	none	none	999.000
181	2	88	standard	AV	ba_base_face_w960.avi	0	none	none	999.000
181	2	89	oddball	AV	ba_redu_face_w960.avi	0	none	none	999.000
181	2	90	standard	AV	ba_base_face_w960.avi	0	none	none	999.000
181	2	91	standard	AV	ba_base_face_w960.avi	0	none	none	999.000
181	2	92	oddball	AV	ba_redu_face_w960.avi	0	none	none	999.000
181	2	93	standard	AV	ba_base_face_w960.avi	0	none	none	999.000
181	2	94	oddball	AV	ba_redu_face_w960.avi	0	none	none	999.000
181	2	95	standard	AV	ba_base_face_w960.avi	0	none	none	999.000
181	2	96	oddball	AV	ba_redu_face_w960.avi	0	none	none	999.000
181	2	97	standard	AV	ba_base_face_w960.avi	0	none	none	999.000
181	2	98	standard	AV	ba_base_face_w960.avi	0	none	none	999.000
181	2	99	oddball	AV	ba_redu_face_w960.avi	0	none	none	999.000
181	2	100	oddball	AV	ba_redu_face_w960.avi	0	none	none	999.000
181	3	1	oddball	PIX	ba_redu_pix_w960.avi	0	none	none	999.000
181	3	2	oddball	PIX	ba_redu_pix_w960.avi	0	none	none	999.000
181	3	3	standard	PIX	ba_base_pix_w960.avi	0	none	none	999.000
181	3	4	oddball	PIX	ba_redu_pix_w960.avi	0	none	none	999.000
181	3	5	standard	PIX	ba_base_pix_w960.avi	0	none	none	999.000
181	3	6	standard	PIX	ba_base_pix_w960.avi	0	none	none	999.000
181	3	7	standard	PIX	ba_base_pix_w960.avi	0	f	A	1.850
181	3	8	oddball	PIX	ba_redu_pix_w960.avi	1	f	A	1.851
181	3	9	oddball	PIX	ba_redu_pix_w960.avi	0	j	BA	1.858
181	3	10	oddball	PIX	ba_redu_pix_w960.avi	1	f	A	1.853
181	3	11	oddball	PIX	ba_redu_pix_w960.avi	0	j	BA	1.461
181	3	12	standard	PIX	ba_base_pix_w960.avi	1	j	BA	1.851
181	3	13	oddball	PIX	ba_redu_pix_w960.avi	1	f	A	1.850
181	3	14	oddball	PIX	ba_redu_pix_w960.avi	0	j	BA	1.851
181	3	15	oddball	PIX	ba_redu_pix_w960.avi	1	f	A	1.221
181	3	16	standard	PIX	ba_base_pix_w960.avi	0	none	none	999.000
181	3	17	oddball	PIX	ba_redu_pix_w960.avi	0	j	BA	1.277
181	3	18	standard	PIX	ba_base_pix_w960.avi	1	j	BA	1.333
181	3	19	oddball	PIX	ba_redu_pix_w960.avi	0	j	BA	1.259
181	3	20	oddball	PIX	ba_redu_pix_w960.avi	0	j	BA	0.952
181	3	21	oddball	PIX	ba_redu_pix_w960.avi	0	j	BA	1.166
181	3	22	standard	PIX	ba_base_pix_w960.avi	1	j	BA	1.221
181	3	23	oddball	PIX	ba_redu_pix_w960.avi	0	j	BA	1.233
181	3	24	oddball	PIX	ba_redu_pix_w960.avi	0	j	BA	1.419
181	3	25	standard	PIX	ba_base_pix_w960.avi	1	j	BA	1.980
181	3	26	standard	PIX	ba_base_pix_w960.avi	1	j	BA	1.849
181	3	27	oddball	PIX	ba_redu_pix_w960.avi	0	none	none	999.000
181	3	28	standard	PIX	ba_base_pix_w960.avi	1	j	BA	1.850
181	3	29	oddball	PIX	ba_redu_pix_w960.avi	1	f	A	1.849
181	3	30	standard	PIX	ba_base_pix_w960.avi	1	j	BA	1.851
181	3	31	standard	PIX	ba_base_pix_w960.avi	1	j	BA	1.338
181	3	32	oddball	PIX	ba_redu_pix_w960.avi	0	j	BA	1.931
181	3	33	standard	PIX	ba_base_pix_w960.avi	1	j	BA	1.862
181	3	34	oddball	PIX	ba_redu_pix_w960.avi	1	f	A	1.229
181	3	35	oddball	PIX	ba_redu_pix_w960.avi	0	j	BA	1.352
181	3	36	oddball	PIX	ba_redu_pix_w960.avi	0	none	none	999.000
181	3	37	oddball	PIX	ba_redu_pix_w960.avi	0	j	BA	1.852
181	3	38	standard	PIX	ba_base_pix_w960.avi	1	j	BA	1.429
181	3	39	oddball	PIX	ba_redu_pix_w960.avi	1	f	A	1.388
181	3	40	oddball	PIX	ba_redu_pix_w960.avi	1	f	A	1.857
181	3	41	standard	PIX	ba_base_pix_w960.avi	1	j	BA	1.852
181	3	42	standard	PIX	ba_base_pix_w960.avi	1	j	BA	1.855
181	3	43	standard	PIX	ba_base_pix_w960.avi	1	j	BA	1.319
181	3	44	oddball	PIX	ba_redu_pix_w960.avi	1	f	A	1.260
181	3	45	oddball	PIX	ba_redu_pix_w960.avi	1	f	A	1.952
181	3	46	oddball	PIX	ba_redu_pix_w960.avi	1	f	A	1.858
181	3	47	oddball	PIX	ba_redu_pix_w960.avi	0	j	BA	1.862
181	3	48	oddball	PIX	ba_redu_pix_w960.avi	0	none	none	999.000
181	3	49	oddball	PIX	ba_redu_pix_w960.avi	0	j	BA	0.005
181	3	50	oddball	PIX	ba_redu_pix_w960.avi	1	f	A	1.861
181	3	51	standard	PIX	ba_base_pix_w960.avi	1	j	BA	1.863
181	3	52	standard	PIX	ba_base_pix_w960.avi	1	j	BA	1.967
181	3	53	standard	PIX	ba_base_pix_w960.avi	0	none	none	999.000
181	3	54	oddball	PIX	ba_redu_pix_w960.avi	0	j	BA	0.005
181	3	55	standard	PIX	ba_base_pix_w960.avi	1	j	BA	1.854
181	3	56	standard	PIX	ba_base_pix_w960.avi	1	j	BA	1.862
181	3	57	oddball	PIX	ba_redu_pix_w960.avi	1	f	A	1.286
181	3	58	oddball	PIX	ba_redu_pix_w960.avi	1	f	A	1.856
181	3	59	standard	PIX	ba_base_pix_w960.avi	1	j	BA	1.937
181	3	60	standard	PIX	ba_base_pix_w960.avi	1	j	BA	1.863
181	3	61	oddball	PIX	ba_redu_pix_w960.avi	1	f	A	1.323
181	3	62	standard	PIX	ba_base_pix_w960.avi	1	j	BA	1.885
181	3	63	oddball	PIX	ba_redu_pix_w960.avi	0	j	BA	1.967
181	3	64	standard	PIX	ba_base_pix_w960.avi	1	j	BA	1.454
181	3	65	standard	PIX	ba_base_pix_w960.avi	0	none	none	999.000
181	3	66	oddball	PIX	ba_redu_pix_w960.avi	0	j	BA	0.005
181	3	67	oddball	PIX	ba_redu_pix_w960.avi	1	f	A	0.005
181	3	68	standard	PIX	ba_base_pix_w960.avi	0	none	none	999.000
181	3	69	oddball	PIX	ba_redu_pix_w960.avi	1	f	A	1.853
181	3	70	standard	PIX	ba_base_pix_w960.avi	1	j	BA	1.538
181	3	71	standard	PIX	ba_base_pix_w960.avi	0	none	none	999.000
181	3	72	standard	PIX	ba_base_pix_w960.avi	1	j	BA	0.004
181	3	73	oddball	PIX	ba_redu_pix_w960.avi	0	j	BA	0.005
181	3	74	oddball	PIX	ba_redu_pix_w960.avi	1	f	A	1.491
181	3	75	standard	PIX	ba_base_pix_w960.avi	0	f	A	1.853
181	3	76	standard	PIX	ba_base_pix_w960.avi	1	j	BA	1.848
181	3	77	standard	PIX	ba_base_pix_w960.avi	1	j	BA	1.862
181	3	78	standard	PIX	ba_base_pix_w960.avi	1	j	BA	1.509
181	3	79	standard	PIX	ba_base_pix_w960.avi	1	j	BA	1.246
181	3	80	standard	PIX	ba_base_pix_w960.avi	1	j	BA	1.287
181	3	81	standard	PIX	ba_base_pix_w960.avi	1	j	BA	1.272
181	3	82	standard	PIX	ba_base_pix_w960.avi	1	j	BA	1.256
181	3	83	oddball	PIX	ba_redu_pix_w960.avi	1	f	A	1.542
181	3	84	standard	PIX	ba_base_pix_w960.avi	1	j	BA	1.862
181	3	85	standard	PIX	ba_base_pix_w960.avi	1	j	BA	1.436
181	3	86	standard	PIX	ba_base_pix_w960.avi	1	j	BA	1.386
181	3	87	standard	PIX	ba_base_pix_w960.avi	1	j	BA	1.301
181	3	88	standard	PIX	ba_base_pix_w960.avi	1	j	BA	1.252
181	3	89	oddball	PIX	ba_redu_pix_w960.avi	1	f	A	1.369
181	3	90	standard	PIX	ba_base_pix_w960.avi	1	j	BA	1.290
181	3	91	standard	PIX	ba_base_pix_w960.avi	1	j	BA	1.197
181	3	92	standard	PIX	ba_base_pix_w960.avi	1	j	BA	1.188
181	3	93	oddball	PIX	ba_redu_pix_w960.avi	1	f	A	1.850
181	3	94	oddball	PIX	ba_redu_pix_w960.avi	0	j	BA	2.016
181	3	95	standard	PIX	ba_base_pix_w960.avi	1	j	BA	1.501
181	3	96	oddball	PIX	ba_redu_pix_w960.avi	1	f	A	1.421
181	3	97	standard	PIX	ba_base_pix_w960.avi	1	j	BA	1.326
181	3	98	oddball	PIX	ba_redu_pix_w960.avi	1	f	A	1.445
181	3	99	oddball	PIX	ba_redu_pix_w960.avi	1	f	A	1.850
181	3	100	oddball	PIX	ba_redu_pix_w960.avi	1	f	A	1.491
