Subject	Block	Trial	StimType	StimCategory	Stimulus	ACC	RESP	Sound	RT
246	1	1	oddball	AV	ba_redu_face_w960.avi	0	none	none	999.000
246	1	2	standard	AV	ba_base_face_w960.avi	1	j	BA	0.005
246	1	3	standard	AV	ba_base_face_w960.avi	1	j	BA	1.527
246	1	4	standard	AV	ba_base_face_w960.avi	1	j	BA	1.852
246	1	5	standard	AV	ba_base_face_w960.avi	1	j	BA	1.490
246	1	6	standard	AV	ba_base_face_w960.avi	1	j	BA	1.383
246	1	7	oddball	AV	ba_redu_face_w960.avi	0	j	BA	1.230
246	1	8	oddball	AV	ba_redu_face_w960.avi	0	j	BA	1.324
246	1	9	oddball	AV	ba_redu_face_w960.avi	0	j	BA	1.434
246	1	10	oddball	AV	ba_redu_face_w960.avi	0	j	BA	1.320
246	1	11	standard	AV	ba_base_face_w960.avi	1	j	BA	1.309
246	1	12	oddball	AV	ba_redu_face_w960.avi	0	j	BA	1.851
246	1	13	standard	AV	ba_base_face_w960.avi	1	j	BA	1.152
246	1	14	oddball	AV	ba_redu_face_w960.avi	0	j	BA	1.291
246	1	15	standard	AV	ba_base_face_w960.avi	1	j	BA	1.265
246	1	16	standard	AV	ba_base_face_w960.avi	1	j	BA	1.325
246	1	17	standard	AV	ba_base_face_w960.avi	1	j	BA	1.251
246	1	18	standard	AV	ba_base_face_w960.avi	1	j	BA	1.123
246	1	19	standard	AV	ba_base_face_w960.avi	1	j	BA	1.297
246	1	20	oddball	AV	ba_redu_face_w960.avi	0	j	BA	0.971
246	1	21	standard	AV	ba_base_face_w960.avi	1	j	BA	1.254
246	1	22	standard	AV	ba_base_face_w960.avi	1	j	BA	1.383
246	1	23	oddball	AV	ba_redu_face_w960.avi	0	j	BA	1.405
246	1	24	standard	AV	ba_base_face_w960.avi	1	j	BA	1.422
246	1	25	standard	AV	ba_base_face_w960.avi	1	j	BA	1.421
246	1	26	standard	AV	ba_base_face_w960.avi	1	j	BA	1.285
246	1	27	standard	AV	ba_base_face_w960.avi	1	j	BA	1.364
246	1	28	oddball	AV	ba_redu_face_w960.avi	0	j	BA	1.123
246	1	29	oddball	AV	ba_redu_face_w960.avi	0	j	BA	1.266
246	1	30	standard	AV	ba_base_face_w960.avi	1	j	BA	1.312
246	1	31	oddball	AV	ba_redu_face_w960.avi	0	j	BA	1.231
246	1	32	oddball	AV	ba_redu_face_w960.avi	0	j	BA	1.291
246	1	33	oddball	AV	ba_redu_face_w960.avi	0	j	BA	1.285
246	1	34	oddball	AV	ba_redu_face_w960.avi	0	j	BA	1.297
246	1	35	standard	AV	ba_base_face_w960.avi	1	j	BA	1.186
246	1	36	standard	AV	ba_base_face_w960.avi	1	j	BA	1.257
246	1	37	oddball	AV	ba_redu_face_w960.avi	0	j	BA	1.366
246	1	38	standard	AV	ba_base_face_w960.avi	1	j	BA	1.864
246	1	39	standard	AV	ba_base_face_w960.avi	1	j	BA	1.287
246	1	40	standard	AV	ba_base_face_w960.avi	1	j	BA	1.263
246	1	41	oddball	AV	ba_redu_face_w960.avi	0	j	BA	1.278
246	1	42	standard	AV	ba_base_face_w960.avi	1	j	BA	1.222
246	1	43	standard	AV	ba_base_face_w960.avi	1	j	BA	1.354
246	1	44	oddball	AV	ba_redu_face_w960.avi	0	j	BA	1.164
246	1	45	standard	AV	ba_base_face_w960.avi	1	j	BA	1.935
246	1	46	standard	AV	ba_base_face_w960.avi	1	j	BA	1.861
246	1	47	oddball	AV	ba_redu_face_w960.avi	0	j	BA	1.251
246	1	48	oddball	AV	ba_redu_face_w960.avi	0	j	BA	1.199
246	1	49	oddball	AV	ba_redu_face_w960.avi	0	j	BA	1.357
246	1	50	standard	AV	ba_base_face_w960.avi	1	j	BA	1.220
246	1	51	standard	AV	ba_base_face_w960.avi	1	j	BA	1.365
246	1	52	oddball	AV	ba_redu_face_w960.avi	0	j	BA	1.387
246	1	53	standard	AV	ba_base_face_w960.avi	1	j	BA	1.290
246	1	54	oddball	AV	ba_redu_face_w960.avi	0	j	BA	1.377
246	1	55	oddball	AV	ba_redu_face_w960.avi	0	j	BA	1.297
246	1	56	standard	AV	ba_base_face_w960.avi	1	j	BA	1.252
246	1	57	standard	AV	ba_base_face_w960.avi	1	j	BA	1.399
246	1	58	standard	AV	ba_base_face_w960.avi	1	j	BA	1.367
246	1	59	oddball	AV	ba_redu_face_w960.avi	0	j	BA	1.363
246	1	60	oddball	AV	ba_redu_face_w960.avi	0	j	BA	1.156
246	1	61	oddball	AV	ba_redu_face_w960.avi	0	j	BA	1.200
246	1	62	oddball	AV	ba_redu_face_w960.avi	0	j	BA	1.322
246	1	63	standard	AV	ba_base_face_w960.avi	1	j	BA	1.540
246	1	64	oddball	AV	ba_redu_face_w960.avi	0	j	BA	1.486
246	1	65	standard	AV	ba_base_face_w960.avi	1	j	BA	1.262
246	1	66	oddball	AV	ba_redu_face_w960.avi	0	j	BA	1.534
246	1	67	standard	AV	ba_base_face_w960.avi	1	j	BA	1.329
246	1	68	oddball	AV	ba_redu_face_w960.avi	0	j	BA	1.184
246	1	69	standard	AV	ba_base_face_w960.avi	1	j	BA	1.320
246	1	70	oddball	AV	ba_redu_face_w960.avi	0	j	BA	1.165
246	1	71	standard	AV	ba_base_face_w960.avi	1	j	BA	1.342
246	1	72	oddball	AV	ba_redu_face_w960.avi	0	j	BA	1.165
246	1	73	standard	AV	ba_base_face_w960.avi	1	j	BA	1.220
246	1	74	standard	AV	ba_base_face_w960.avi	1	j	BA	1.126
246	1	75	standard	AV	ba_base_face_w960.avi	1	j	BA	1.189
246	1	76	standard	AV	ba_base_face_w960.avi	1	j	BA	1.143
246	1	77	oddball	AV	ba_redu_face_w960.avi	0	j	BA	1.266
246	1	78	standard	AV	ba_base_face_w960.avi	1	j	BA	1.307
246	1	79	oddball	AV	ba_redu_face_w960.avi	0	j	BA	1.121
246	1	80	standard	AV	ba_base_face_w960.avi	1	j	BA	1.366
246	1	81	oddball	AV	ba_redu_face_w960.avi	0	j	BA	1.399
246	1	82	standard	AV	ba_base_face_w960.avi	1	j	BA	1.265
246	1	83	oddball	AV	ba_redu_face_w960.avi	0	j	BA	1.133
246	1	84	standard	AV	ba_base_face_w960.avi	1	j	BA	1.387
246	1	85	oddball	AV	ba_redu_face_w960.avi	0	j	BA	1.333
246	1	86	oddball	AV	ba_redu_face_w960.avi	0	j	BA	1.431
246	1	87	oddball	AV	ba_redu_face_w960.avi	0	j	BA	0.963
246	1	88	oddball	AV	ba_redu_face_w960.avi	0	j	BA	1.849
246	1	89	oddball	AV	ba_redu_face_w960.avi	0	j	BA	1.364
246	1	90	oddball	AV	ba_redu_face_w960.avi	0	j	BA	1.230
246	1	91	oddball	AV	ba_redu_face_w960.avi	0	j	BA	1.398
246	1	92	standard	AV	ba_base_face_w960.avi	1	j	BA	1.267
246	1	93	oddball	AV	ba_redu_face_w960.avi	0	j	BA	1.298
246	1	94	oddball	AV	ba_redu_face_w960.avi	0	j	BA	1.397
246	1	95	standard	AV	ba_base_face_w960.avi	1	j	BA	1.242
246	1	96	oddball	AV	ba_redu_face_w960.avi	0	j	BA	1.232
246	1	97	oddball	AV	ba_redu_face_w960.avi	0	j	BA	1.228
246	1	98	standard	AV	ba_base_face_w960.avi	1	j	BA	1.433
246	1	99	oddball	AV	ba_redu_face_w960.avi	0	j	BA	1.419
246	1	100	oddball	AV	ba_redu_face_w960.avi	0	j	BA	1.419
246	2	1	oddball	PL	ba_redu_pl_w288.avi	0	none	none	999.000
246	2	2	oddball	PL	ba_redu_pl_w288.avi	1	f	A	0.110
246	2	3	standard	PL	ba_base_pl_w288.avi	1	j	BA	1.282
246	2	4	oddball	PL	ba_redu_pl_w288.avi	0	j	BA	1.295
246	2	5	oddball	PL	ba_redu_pl_w288.avi	1	f	A	1.562
246	2	6	standard	PL	ba_base_pl_w288.avi	1	j	BA	1.276
246	2	7	oddball	PL	ba_redu_pl_w288.avi	0	j	BA	1.460
246	2	8	standard	PL	ba_base_pl_w288.avi	1	j	BA	1.309
246	2	9	standard	PL	ba_base_pl_w288.avi	1	j	BA	1.890
246	2	10	oddball	PL	ba_redu_pl_w288.avi	1	f	A	1.890
246	2	11	standard	PL	ba_base_pl_w288.avi	1	j	BA	1.514
246	2	12	standard	PL	ba_base_pl_w288.avi	1	j	BA	1.510
246	2	13	oddball	PL	ba_redu_pl_w288.avi	1	f	A	1.894
246	2	14	standard	PL	ba_base_pl_w288.avi	1	j	BA	1.496
246	2	15	standard	PL	ba_base_pl_w288.avi	1	j	BA	1.491
246	2	16	standard	PL	ba_base_pl_w288.avi	1	j	BA	1.389
246	2	17	oddball	PL	ba_redu_pl_w288.avi	1	f	A	1.891
246	2	18	standard	PL	ba_base_pl_w288.avi	1	j	BA	1.576
246	2	19	standard	PL	ba_base_pl_w288.avi	1	j	BA	1.408
246	2	20	standard	PL	ba_base_pl_w288.avi	1	j	BA	1.434
246	2	21	oddball	PL	ba_redu_pl_w288.avi	1	f	A	1.894
246	2	22	standard	PL	ba_base_pl_w288.avi	1	j	BA	1.258
246	2	23	oddball	PL	ba_redu_pl_w288.avi	1	f	A	1.429
246	2	24	oddball	PL	ba_redu_pl_w288.avi	1	f	A	1.509
246	2	25	standard	PL	ba_base_pl_w288.avi	1	j	BA	1.360
246	2	26	oddball	PL	ba_redu_pl_w288.avi	1	f	A	1.480
246	2	27	oddball	PL	ba_redu_pl_w288.avi	1	f	A	1.896
246	2	28	standard	PL	ba_base_pl_w288.avi	1	j	BA	1.429
246	2	29	standard	PL	ba_base_pl_w288.avi	0	none	none	999.000
246	2	30	standard	PL	ba_base_pl_w288.avi	1	j	BA	0.221
246	2	31	standard	PL	ba_base_pl_w288.avi	1	j	BA	0.004
246	2	32	standard	PL	ba_base_pl_w288.avi	1	j	BA	1.337
246	2	33	oddball	PL	ba_redu_pl_w288.avi	1	f	A	1.495
246	2	34	oddball	PL	ba_redu_pl_w288.avi	1	f	A	1.503
246	2	35	standard	PL	ba_base_pl_w288.avi	1	j	BA	1.177
246	2	36	standard	PL	ba_base_pl_w288.avi	1	j	BA	1.494
246	2	37	oddball	PL	ba_redu_pl_w288.avi	1	f	A	1.472
246	2	38	standard	PL	ba_base_pl_w288.avi	1	j	BA	1.517
246	2	39	standard	PL	ba_base_pl_w288.avi	1	j	BA	1.407
246	2	40	standard	PL	ba_base_pl_w288.avi	1	j	BA	1.317
246	2	41	oddball	PL	ba_redu_pl_w288.avi	1	f	A	1.410
246	2	42	oddball	PL	ba_redu_pl_w288.avi	1	f	A	1.360
246	2	43	oddball	PL	ba_redu_pl_w288.avi	1	f	A	1.444
246	2	44	oddball	PL	ba_redu_pl_w288.avi	1	f	A	1.423
246	2	45	oddball	PL	ba_redu_pl_w288.avi	1	f	A	1.397
246	2	46	standard	PL	ba_base_pl_w288.avi	1	j	BA	1.289
246	2	47	oddball	PL	ba_redu_pl_w288.avi	1	f	A	1.325
246	2	48	oddball	PL	ba_redu_pl_w288.avi	1	f	A	1.347
246	2	49	oddball	PL	ba_redu_pl_w288.avi	1	f	A	1.266
246	2	50	standard	PL	ba_base_pl_w288.avi	1	j	BA	1.390
246	2	51	standard	PL	ba_base_pl_w288.avi	1	j	BA	1.542
246	2	52	oddball	PL	ba_redu_pl_w288.avi	1	f	A	1.360
246	2	53	oddball	PL	ba_redu_pl_w288.avi	1	f	A	1.381
246	2	54	oddball	PL	ba_redu_pl_w288.avi	1	f	A	1.520
246	2	55	oddball	PL	ba_redu_pl_w288.avi	1	f	A	1.462
246	2	56	standard	PL	ba_base_pl_w288.avi	1	j	BA	1.344
246	2	57	oddball	PL	ba_redu_pl_w288.avi	1	f	A	1.383
246	2	58	oddball	PL	ba_redu_pl_w288.avi	1	f	A	1.359
246	2	59	standard	PL	ba_base_pl_w288.avi	1	j	BA	1.343
246	2	60	standard	PL	ba_base_pl_w288.avi	1	j	BA	1.462
246	2	61	oddball	PL	ba_redu_pl_w288.avi	0	none	none	999.000
246	2	62	oddball	PL	ba_redu_pl_w288.avi	0	j	BA	0.391
246	2	63	oddball	PL	ba_redu_pl_w288.avi	1	f	A	1.323
246	2	64	oddball	PL	ba_redu_pl_w288.avi	1	f	A	1.317
246	2	65	standard	PL	ba_base_pl_w288.avi	1	j	BA	1.215
246	2	66	standard	PL	ba_base_pl_w288.avi	1	j	BA	1.341
246	2	67	oddball	PL	ba_redu_pl_w288.avi	1	f	A	1.409
246	2	68	standard	PL	ba_base_pl_w288.avi	1	j	BA	1.885
246	2	69	oddball	PL	ba_redu_pl_w288.avi	1	f	A	1.882
246	2	70	standard	PL	ba_base_pl_w288.avi	1	j	BA	1.894
246	2	71	standard	PL	ba_base_pl_w288.avi	1	j	BA	2.093
246	2	72	oddball	PL	ba_redu_pl_w288.avi	1	f	A	1.308
246	2	73	standard	PL	ba_base_pl_w288.avi	1	j	BA	1.214
246	2	74	standard	PL	ba_base_pl_w288.avi	1	j	BA	1.881
246	2	75	standard	PL	ba_base_pl_w288.avi	1	j	BA	1.892
246	2	76	oddball	PL	ba_redu_pl_w288.avi	1	f	A	1.381
246	2	77	standard	PL	ba_base_pl_w288.avi	1	j	BA	1.207
246	2	78	standard	PL	ba_base_pl_w288.avi	1	j	BA	1.392
246	2	79	standard	PL	ba_base_pl_w288.avi	1	j	BA	1.261
246	2	80	oddball	PL	ba_redu_pl_w288.avi	1	f	A	1.400
246	2	81	oddball	PL	ba_redu_pl_w288.avi	1	f	A	1.481
246	2	82	oddball	PL	ba_redu_pl_w288.avi	1	f	A	1.894
246	2	83	standard	PL	ba_base_pl_w288.avi	1	j	BA	1.291
246	2	84	oddball	PL	ba_redu_pl_w288.avi	1	f	A	1.365
246	2	85	oddball	PL	ba_redu_pl_w288.avi	1	f	A	1.434
246	2	86	oddball	PL	ba_redu_pl_w288.avi	1	f	A	1.283
246	2	87	standard	PL	ba_base_pl_w288.avi	1	j	BA	1.403
246	2	88	oddball	PL	ba_redu_pl_w288.avi	1	f	A	1.891
246	2	89	standard	PL	ba_base_pl_w288.avi	1	j	BA	1.348
246	2	90	standard	PL	ba_base_pl_w288.avi	0	none	none	999.000
246	2	91	oddball	PL	ba_redu_pl_w288.avi	0	j	BA	0.023
246	2	92	oddball	PL	ba_redu_pl_w288.avi	1	f	A	1.427
246	2	93	oddball	PL	ba_redu_pl_w288.avi	1	f	A	1.561
246	2	94	standard	PL	ba_base_pl_w288.avi	1	j	BA	1.427
246	2	95	oddball	PL	ba_redu_pl_w288.avi	0	none	none	999.000
246	2	96	standard	PL	ba_base_pl_w288.avi	0	f	A	0.005
246	2	97	standard	PL	ba_base_pl_w288.avi	1	j	BA	1.480
246	2	98	oddball	PL	ba_redu_pl_w288.avi	1	f	A	1.890
246	2	99	standard	PL	ba_base_pl_w288.avi	1	j	BA	1.521
246	2	100	standard	PL	ba_base_pl_w288.avi	1	j	BA	1.950
246	3	1	oddball	PIX	ba_redu_pix_w960.avi	0	d	none	1.859
246	3	2	oddball	PIX	ba_redu_pix_w960.avi	1	f	A	1.516
246	3	3	oddball	PIX	ba_redu_pix_w960.avi	1	f	A	1.864
246	3	4	standard	PIX	ba_base_pix_w960.avi	1	j	BA	1.882
246	3	5	standard	PIX	ba_base_pix_w960.avi	1	j	BA	1.259
246	3	6	oddball	PIX	ba_redu_pix_w960.avi	1	f	A	1.490
246	3	7	oddball	PIX	ba_redu_pix_w960.avi	1	f	A	1.365
246	3	8	oddball	PIX	ba_redu_pix_w960.avi	1	f	A	1.334
246	3	9	oddball	PIX	ba_redu_pix_w960.avi	1	f	A	1.424
246	3	10	oddball	PIX	ba_redu_pix_w960.avi	1	f	A	1.388
246	3	11	oddball	PIX	ba_redu_pix_w960.avi	1	f	A	1.376
246	3	12	standard	PIX	ba_base_pix_w960.avi	1	j	BA	1.465
246	3	13	oddball	PIX	ba_redu_pix_w960.avi	1	f	A	1.853
246	3	14	oddball	PIX	ba_redu_pix_w960.avi	1	f	A	1.489
246	3	15	standard	PIX	ba_base_pix_w960.avi	1	j	BA	1.397
246	3	16	oddball	PIX	ba_redu_pix_w960.avi	1	f	A	1.857
246	3	17	standard	PIX	ba_base_pix_w960.avi	1	j	BA	1.321
246	3	18	oddball	PIX	ba_redu_pix_w960.avi	1	f	A	1.851
246	3	19	oddball	PIX	ba_redu_pix_w960.avi	1	f	A	1.419
246	3	20	oddball	PIX	ba_redu_pix_w960.avi	1	f	A	1.852
246	3	21	standard	PIX	ba_base_pix_w960.avi	1	j	BA	1.434
246	3	22	oddball	PIX	ba_redu_pix_w960.avi	1	f	A	1.517
246	3	23	oddball	PIX	ba_redu_pix_w960.avi	1	f	A	1.395
246	3	24	standard	PIX	ba_base_pix_w960.avi	1	j	BA	1.396
246	3	25	oddball	PIX	ba_redu_pix_w960.avi	1	f	A	1.859
246	3	26	standard	PIX	ba_base_pix_w960.avi	1	j	BA	1.852
246	3	27	standard	PIX	ba_base_pix_w960.avi	1	j	BA	1.397
246	3	28	standard	PIX	ba_base_pix_w960.avi	1	j	BA	1.165
246	3	29	oddball	PIX	ba_redu_pix_w960.avi	1	f	A	1.409
246	3	30	standard	PIX	ba_base_pix_w960.avi	1	j	BA	1.422
246	3	31	standard	PIX	ba_base_pix_w960.avi	1	j	BA	1.518
246	3	32	standard	PIX	ba_base_pix_w960.avi	1	j	BA	1.854
246	3	33	standard	PIX	ba_base_pix_w960.avi	1	j	BA	1.331
246	3	34	standard	PIX	ba_base_pix_w960.avi	1	j	BA	1.322
246	3	35	standard	PIX	ba_base_pix_w960.avi	1	j	BA	1.968
246	3	36	standard	PIX	ba_base_pix_w960.avi	1	j	BA	1.356
246	3	37	oddball	PIX	ba_redu_pix_w960.avi	1	f	A	1.333
246	3	38	oddball	PIX	ba_redu_pix_w960.avi	1	f	A	1.388
246	3	39	standard	PIX	ba_base_pix_w960.avi	1	j	BA	1.387
246	3	40	standard	PIX	ba_base_pix_w960.avi	1	j	BA	1.329
246	3	41	oddball	PIX	ba_redu_pix_w960.avi	1	f	A	1.463
246	3	42	oddball	PIX	ba_redu_pix_w960.avi	1	f	A	1.861
246	3	43	standard	PIX	ba_base_pix_w960.avi	1	j	BA	1.354
246	3	44	oddball	PIX	ba_redu_pix_w960.avi	1	f	A	1.462
246	3	45	standard	PIX	ba_base_pix_w960.avi	1	j	BA	1.430
246	3	46	standard	PIX	ba_base_pix_w960.avi	1	j	BA	1.344
246	3	47	oddball	PIX	ba_redu_pix_w960.avi	1	f	A	1.529
246	3	48	oddball	PIX	ba_redu_pix_w960.avi	1	f	A	1.864
246	3	49	oddball	PIX	ba_redu_pix_w960.avi	1	f	A	1.428
246	3	50	oddball	PIX	ba_redu_pix_w960.avi	1	f	A	1.334
246	3	51	standard	PIX	ba_base_pix_w960.avi	1	j	BA	1.461
246	3	52	oddball	PIX	ba_redu_pix_w960.avi	1	f	A	1.994
246	3	53	oddball	PIX	ba_redu_pix_w960.avi	1	f	A	1.430
246	3	54	oddball	PIX	ba_redu_pix_w960.avi	1	f	A	1.401
246	3	55	standard	PIX	ba_base_pix_w960.avi	1	j	BA	1.238
246	3	56	standard	PIX	ba_base_pix_w960.avi	1	j	BA	1.488
246	3	57	standard	PIX	ba_base_pix_w960.avi	1	j	BA	1.407
246	3	58	oddball	PIX	ba_redu_pix_w960.avi	1	f	A	1.400
246	3	59	standard	PIX	ba_base_pix_w960.avi	1	j	BA	1.857
246	3	60	standard	PIX	ba_base_pix_w960.avi	1	j	BA	1.489
246	3	61	standard	PIX	ba_base_pix_w960.avi	1	j	BA	1.394
246	3	62	standard	PIX	ba_base_pix_w960.avi	1	j	BA	1.322
246	3	63	oddball	PIX	ba_redu_pix_w960.avi	1	f	A	1.857
246	3	64	standard	PIX	ba_base_pix_w960.avi	1	j	BA	1.391
246	3	65	standard	PIX	ba_base_pix_w960.avi	1	j	BA	1.363
246	3	66	standard	PIX	ba_base_pix_w960.avi	1	j	BA	1.366
246	3	67	oddball	PIX	ba_redu_pix_w960.avi	1	f	A	1.848
246	3	68	oddball	PIX	ba_redu_pix_w960.avi	1	f	A	1.322
246	3	69	standard	PIX	ba_base_pix_w960.avi	1	j	BA	1.546
246	3	70	standard	PIX	ba_base_pix_w960.avi	1	j	BA	1.862
246	3	71	oddball	PIX	ba_redu_pix_w960.avi	1	f	A	1.500
246	3	72	oddball	PIX	ba_redu_pix_w960.avi	1	f	A	1.913
246	3	73	standard	PIX	ba_base_pix_w960.avi	1	j	BA	1.326
246	3	74	standard	PIX	ba_base_pix_w960.avi	1	j	BA	1.864
246	3	75	standard	PIX	ba_base_pix_w960.avi	0	f	A	1.468
246	3	76	oddball	PIX	ba_redu_pix_w960.avi	1	f	A	1.288
246	3	77	standard	PIX	ba_base_pix_w960.avi	1	j	BA	1.420
246	3	78	oddball	PIX	ba_redu_pix_w960.avi	1	f	A	1.324
246	3	79	oddball	PIX	ba_redu_pix_w960.avi	1	f	A	1.392
246	3	80	oddball	PIX	ba_redu_pix_w960.avi	1	f	A	1.421
246	3	81	standard	PIX	ba_base_pix_w960.avi	1	j	BA	1.489
246	3	82	oddball	PIX	ba_redu_pix_w960.avi	1	f	A	1.863
246	3	83	standard	PIX	ba_base_pix_w960.avi	1	j	BA	1.468
246	3	84	standard	PIX	ba_base_pix_w960.avi	1	j	BA	1.322
246	3	85	oddball	PIX	ba_redu_pix_w960.avi	1	f	A	1.855
246	3	86	oddball	PIX	ba_redu_pix_w960.avi	1	f	A	1.490
246	3	87	oddball	PIX	ba_redu_pix_w960.avi	1	f	A	1.338
246	3	88	standard	PIX	ba_base_pix_w960.avi	1	j	BA	1.469
246	3	89	oddball	PIX	ba_redu_pix_w960.avi	1	f	A	1.392
246	3	90	standard	PIX	ba_base_pix_w960.avi	1	j	BA	1.168
246	3	91	standard	PIX	ba_base_pix_w960.avi	1	j	BA	1.522
246	3	92	oddball	PIX	ba_redu_pix_w960.avi	1	f	A	1.853
246	3	93	standard	PIX	ba_base_pix_w960.avi	1	j	BA	1.393
246	3	94	standard	PIX	ba_base_pix_w960.avi	1	j	BA	1.852
246	3	95	oddball	PIX	ba_redu_pix_w960.avi	1	f	A	1.354
246	3	96	standard	PIX	ba_base_pix_w960.avi	1	j	BA	1.851
246	3	97	oddball	PIX	ba_redu_pix_w960.avi	1	f	A	1.524
246	3	98	oddball	PIX	ba_redu_pix_w960.avi	0	none	none	999.000
246	3	99	standard	PIX	ba_base_pix_w960.avi	0	f	A	0.005
246	3	100	standard	PIX	ba_base_pix_w960.avi	1	j	BA	2.026
