Subject	Block	Trial	StimType	StimCategory	Stimulus	ACC	RESP	Sound	RT
254	1	1	standard	PL	ba_base_pl_w288.avi	1	j	BA	1.895
254	1	2	standard	PL	ba_base_pl_w288.avi	1	j	BA	1.443
254	1	3	oddball	PL	ba_redu_pl_w288.avi	1	f	A	1.569
254	1	4	standard	PL	ba_base_pl_w288.avi	1	j	BA	1.886
254	1	5	oddball	PL	ba_redu_pl_w288.avi	1	f	A	1.894
254	1	6	oddball	PL	ba_redu_pl_w288.avi	1	f	A	1.527
254	1	7	standard	PL	ba_base_pl_w288.avi	1	j	BA	1.890
254	1	8	standard	PL	ba_base_pl_w288.avi	1	j	BA	1.505
254	1	9	standard	PL	ba_base_pl_w288.avi	1	j	BA	1.547
254	1	10	standard	PL	ba_base_pl_w288.avi	1	j	BA	1.376
254	1	11	standard	PL	ba_base_pl_w288.avi	1	j	BA	1.422
254	1	12	oddball	PL	ba_redu_pl_w288.avi	1	f	A	1.893
254	1	13	standard	PL	ba_base_pl_w288.avi	1	j	BA	1.456
254	1	14	oddball	PL	ba_redu_pl_w288.avi	1	f	A	1.493
254	1	15	oddball	PL	ba_redu_pl_w288.avi	1	f	A	1.520
254	1	16	standard	PL	ba_base_pl_w288.avi	1	j	BA	1.493
254	1	17	standard	PL	ba_base_pl_w288.avi	1	j	BA	1.281
254	1	18	oddball	PL	ba_redu_pl_w288.avi	1	f	A	1.400
254	1	19	oddball	PL	ba_redu_pl_w288.avi	1	f	A	1.456
254	1	20	oddball	PL	ba_redu_pl_w288.avi	1	f	A	1.409
254	1	21	oddball	PL	ba_redu_pl_w288.avi	1	f	A	1.463
254	1	22	oddball	PL	ba_redu_pl_w288.avi	1	f	A	1.536
254	1	23	standard	PL	ba_base_pl_w288.avi	1	j	BA	1.521
254	1	24	oddball	PL	ba_redu_pl_w288.avi	0	j	BA	1.893
254	1	25	oddball	PL	ba_redu_pl_w288.avi	0	j	BA	1.519
254	1	26	oddball	PL	ba_redu_pl_w288.avi	1	f	A	1.501
254	1	27	oddball	PL	ba_redu_pl_w288.avi	1	f	A	1.490
254	1	28	standard	PL	ba_base_pl_w288.avi	1	j	BA	1.890
254	1	29	oddball	PL	ba_redu_pl_w288.avi	1	f	A	1.887
254	1	30	oddball	PL	ba_redu_pl_w288.avi	1	f	A	1.455
254	1	31	standard	PL	ba_base_pl_w288.avi	1	j	BA	1.893
254	1	32	oddball	PL	ba_redu_pl_w288.avi	1	f	A	1.891
254	1	33	standard	PL	ba_base_pl_w288.avi	1	j	BA	1.487
254	1	34	oddball	PL	ba_redu_pl_w288.avi	1	f	A	1.496
254	1	35	standard	PL	ba_base_pl_w288.avi	1	j	BA	1.355
254	1	36	standard	PL	ba_base_pl_w288.avi	1	j	BA	1.467
254	1	37	oddball	PL	ba_redu_pl_w288.avi	0	j	BA	1.889
254	1	38	standard	PL	ba_base_pl_w288.avi	1	j	BA	1.410
254	1	39	standard	PL	ba_base_pl_w288.avi	1	j	BA	1.475
254	1	40	standard	PL	ba_base_pl_w288.avi	1	j	BA	1.457
254	1	41	oddball	PL	ba_redu_pl_w288.avi	1	f	A	1.471
254	1	42	standard	PL	ba_base_pl_w288.avi	1	j	BA	1.548
254	1	43	oddball	PL	ba_redu_pl_w288.avi	1	f	A	1.539
254	1	44	oddball	PL	ba_redu_pl_w288.avi	1	f	A	1.889
254	1	45	oddball	PL	ba_redu_pl_w288.avi	1	f	A	1.886
254	1	46	oddball	PL	ba_redu_pl_w288.avi	1	f	A	1.510
254	1	47	standard	PL	ba_base_pl_w288.avi	1	j	BA	1.888
254	1	48	oddball	PL	ba_redu_pl_w288.avi	0	j	BA	1.574
254	1	49	oddball	PL	ba_redu_pl_w288.avi	1	f	A	1.524
254	1	50	standard	PL	ba_base_pl_w288.avi	1	j	BA	1.908
254	1	51	oddball	PL	ba_redu_pl_w288.avi	0	none	none	999.000
254	1	52	oddball	PL	ba_redu_pl_w288.avi	1	f	A	0.186
254	1	53	standard	PL	ba_base_pl_w288.avi	1	j	BA	1.373
254	1	54	standard	PL	ba_base_pl_w288.avi	1	j	BA	1.460
254	1	55	standard	PL	ba_base_pl_w288.avi	1	j	BA	1.390
254	1	56	standard	PL	ba_base_pl_w288.avi	1	j	BA	1.414
254	1	57	standard	PL	ba_base_pl_w288.avi	1	j	BA	1.391
254	1	58	standard	PL	ba_base_pl_w288.avi	1	j	BA	1.344
254	1	59	standard	PL	ba_base_pl_w288.avi	1	j	BA	1.378
254	1	60	standard	PL	ba_base_pl_w288.avi	1	j	BA	1.365
254	1	61	oddball	PL	ba_redu_pl_w288.avi	1	f	A	1.895
254	1	62	standard	PL	ba_base_pl_w288.avi	1	j	BA	1.893
254	1	63	standard	PL	ba_base_pl_w288.avi	1	j	BA	1.381
254	1	64	oddball	PL	ba_redu_pl_w288.avi	1	f	A	1.889
254	1	65	oddball	PL	ba_redu_pl_w288.avi	1	f	A	1.560
254	1	66	standard	PL	ba_base_pl_w288.avi	1	j	BA	1.292
254	1	67	standard	PL	ba_base_pl_w288.avi	1	j	BA	1.365
254	1	68	oddball	PL	ba_redu_pl_w288.avi	1	f	A	1.891
254	1	69	standard	PL	ba_base_pl_w288.avi	1	j	BA	1.375
254	1	70	oddball	PL	ba_redu_pl_w288.avi	1	f	A	1.476
254	1	71	standard	PL	ba_base_pl_w288.avi	1	j	BA	1.359
254	1	72	oddball	PL	ba_redu_pl_w288.avi	1	f	A	1.496
254	1	73	standard	PL	ba_base_pl_w288.avi	1	j	BA	1.308
254	1	74	standard	PL	ba_base_pl_w288.avi	1	j	BA	1.425
254	1	75	standard	PL	ba_base_pl_w288.avi	1	j	BA	1.393
254	1	76	oddball	PL	ba_redu_pl_w288.avi	1	f	A	1.345
254	1	77	oddball	PL	ba_redu_pl_w288.avi	1	f	A	1.361
254	1	78	standard	PL	ba_base_pl_w288.avi	1	j	BA	1.338
254	1	79	oddball	PL	ba_redu_pl_w288.avi	1	f	A	1.430
254	1	80	oddball	PL	ba_redu_pl_w288.avi	1	f	A	1.399
254	1	81	oddball	PL	ba_redu_pl_w288.avi	1	f	A	1.424
254	1	82	standard	PL	ba_base_pl_w288.avi	1	j	BA	1.360
254	1	83	oddball	PL	ba_redu_pl_w288.avi	1	f	A	1.509
254	1	84	oddball	PL	ba_redu_pl_w288.avi	1	f	A	1.415
254	1	85	oddball	PL	ba_redu_pl_w288.avi	1	f	A	1.426
254	1	86	standard	PL	ba_base_pl_w288.avi	1	j	BA	1.374
254	1	87	oddball	PL	ba_redu_pl_w288.avi	1	f	A	1.487
254	1	88	oddball	PL	ba_redu_pl_w288.avi	1	f	A	1.489
254	1	89	standard	PL	ba_base_pl_w288.avi	1	j	BA	1.378
254	1	90	oddball	PL	ba_redu_pl_w288.avi	1	f	A	1.438
254	1	91	oddball	PL	ba_redu_pl_w288.avi	1	f	A	1.475
254	1	92	standard	PL	ba_base_pl_w288.avi	1	j	BA	1.303
254	1	93	standard	PL	ba_base_pl_w288.avi	1	j	BA	1.309
254	1	94	standard	PL	ba_base_pl_w288.avi	1	j	BA	1.357
254	1	95	standard	PL	ba_base_pl_w288.avi	1	j	BA	1.289
254	1	96	oddball	PL	ba_redu_pl_w288.avi	1	f	A	1.507
254	1	97	oddball	PL	ba_redu_pl_w288.avi	1	f	A	1.422
254	1	98	standard	PL	ba_base_pl_w288.avi	1	j	BA	1.505
254	1	99	standard	PL	ba_base_pl_w288.avi	1	j	BA	1.456
254	1	100	oddball	PL	ba_redu_pl_w288.avi	1	f	A	1.891
254	2	1	oddball	AV	ba_redu_face_w960.avi	0	none	none	999.000
254	2	2	standard	AV	ba_base_face_w960.avi	1	j	BA	0.245
254	2	3	standard	AV	ba_base_face_w960.avi	1	j	BA	1.451
254	2	4	oddball	AV	ba_redu_face_w960.avi	0	j	BA	1.318
254	2	5	oddball	AV	ba_redu_face_w960.avi	0	j	BA	1.429
254	2	6	standard	AV	ba_base_face_w960.avi	1	j	BA	1.396
254	2	7	standard	AV	ba_base_face_w960.avi	1	j	BA	1.364
254	2	8	standard	AV	ba_base_face_w960.avi	1	j	BA	1.329
254	2	9	standard	AV	ba_base_face_w960.avi	1	j	BA	1.345
254	2	10	standard	AV	ba_base_face_w960.avi	1	j	BA	1.396
254	2	11	oddball	AV	ba_redu_face_w960.avi	0	j	BA	1.308
254	2	12	oddball	AV	ba_redu_face_w960.avi	0	j	BA	1.433
254	2	13	standard	AV	ba_base_face_w960.avi	1	j	BA	1.500
254	2	14	oddball	AV	ba_redu_face_w960.avi	0	j	BA	1.488
254	2	15	oddball	AV	ba_redu_face_w960.avi	0	j	BA	1.462
254	2	16	oddball	AV	ba_redu_face_w960.avi	0	j	BA	1.460
254	2	17	oddball	AV	ba_redu_face_w960.avi	0	j	BA	1.433
254	2	18	standard	AV	ba_base_face_w960.avi	1	j	BA	1.423
254	2	19	standard	AV	ba_base_face_w960.avi	1	j	BA	1.530
254	2	20	oddball	AV	ba_redu_face_w960.avi	0	j	BA	1.500
254	2	21	oddball	AV	ba_redu_face_w960.avi	0	j	BA	1.848
254	2	22	standard	AV	ba_base_face_w960.avi	1	j	BA	1.487
254	2	23	standard	AV	ba_base_face_w960.avi	1	j	BA	1.962
254	2	24	standard	AV	ba_base_face_w960.avi	1	j	BA	1.362
254	2	25	oddball	AV	ba_redu_face_w960.avi	0	j	BA	1.854
254	2	26	oddball	AV	ba_redu_face_w960.avi	0	j	BA	1.850
254	2	27	oddball	AV	ba_redu_face_w960.avi	0	j	BA	1.863
254	2	28	standard	AV	ba_base_face_w960.avi	1	j	BA	1.546
254	2	29	oddball	AV	ba_redu_face_w960.avi	0	j	BA	1.495
254	2	30	oddball	AV	ba_redu_face_w960.avi	0	j	BA	1.466
254	2	31	standard	AV	ba_base_face_w960.avi	1	j	BA	1.848
254	2	32	standard	AV	ba_base_face_w960.avi	1	j	BA	1.863
254	2	33	standard	AV	ba_base_face_w960.avi	1	j	BA	1.471
254	2	34	standard	AV	ba_base_face_w960.avi	1	j	BA	1.497
254	2	35	standard	AV	ba_base_face_w960.avi	1	j	BA	1.526
254	2	36	oddball	AV	ba_redu_face_w960.avi	0	j	BA	1.848
254	2	37	oddball	AV	ba_redu_face_w960.avi	0	j	BA	1.985
254	2	38	oddball	AV	ba_redu_face_w960.avi	0	j	BA	1.895
254	2	39	oddball	AV	ba_redu_face_w960.avi	0	j	BA	1.862
254	2	40	standard	AV	ba_base_face_w960.avi	1	j	BA	1.853
254	2	41	oddball	AV	ba_redu_face_w960.avi	0	j	BA	1.859
254	2	42	standard	AV	ba_base_face_w960.avi	1	j	BA	1.863
254	2	43	oddball	AV	ba_redu_face_w960.avi	0	j	BA	1.971
254	2	44	standard	AV	ba_base_face_w960.avi	1	j	BA	1.428
254	2	45	oddball	AV	ba_redu_face_w960.avi	0	j	BA	1.856
254	2	46	standard	AV	ba_base_face_w960.avi	1	j	BA	1.847
254	2	47	standard	AV	ba_base_face_w960.avi	1	j	BA	1.861
254	2	48	oddball	AV	ba_redu_face_w960.avi	0	j	BA	1.852
254	2	49	standard	AV	ba_base_face_w960.avi	1	j	BA	1.863
254	2	50	oddball	AV	ba_redu_face_w960.avi	0	j	BA	1.856
254	2	51	oddball	AV	ba_redu_face_w960.avi	0	j	BA	1.862
254	2	52	oddball	AV	ba_redu_face_w960.avi	0	j	BA	1.851
254	2	53	standard	AV	ba_base_face_w960.avi	1	j	BA	1.848
254	2	54	oddball	AV	ba_redu_face_w960.avi	0	j	BA	1.863
254	2	55	standard	AV	ba_base_face_w960.avi	1	j	BA	1.848
254	2	56	oddball	AV	ba_redu_face_w960.avi	0	j	BA	1.857
254	2	57	standard	AV	ba_base_face_w960.avi	1	j	BA	1.849
254	2	58	standard	AV	ba_base_face_w960.avi	0	none	none	999.000
254	2	59	standard	AV	ba_base_face_w960.avi	1	j	BA	0.005
254	2	60	oddball	AV	ba_redu_face_w960.avi	0	none	none	999.000
254	2	61	oddball	AV	ba_redu_face_w960.avi	0	j	BA	0.004
254	2	62	oddball	AV	ba_redu_face_w960.avi	0	j	BA	0.300
254	2	63	standard	AV	ba_base_face_w960.avi	1	j	BA	1.396
254	2	64	oddball	AV	ba_redu_face_w960.avi	0	j	BA	1.404
254	2	65	standard	AV	ba_base_face_w960.avi	1	j	BA	1.501
254	2	66	oddball	AV	ba_redu_face_w960.avi	0	j	BA	1.847
254	2	67	standard	AV	ba_base_face_w960.avi	1	j	BA	1.851
254	2	68	standard	AV	ba_base_face_w960.avi	1	j	BA	1.861
254	2	69	oddball	AV	ba_redu_face_w960.avi	0	j	BA	1.862
254	2	70	standard	AV	ba_base_face_w960.avi	1	j	BA	1.199
254	2	71	standard	AV	ba_base_face_w960.avi	1	j	BA	1.496
254	2	72	standard	AV	ba_base_face_w960.avi	1	j	BA	1.851
254	2	73	oddball	AV	ba_redu_face_w960.avi	0	j	BA	1.847
254	2	74	standard	AV	ba_base_face_w960.avi	1	j	BA	1.863
254	2	75	standard	AV	ba_base_face_w960.avi	1	j	BA	1.856
254	2	76	standard	AV	ba_base_face_w960.avi	1	j	BA	1.850
254	2	77	oddball	AV	ba_redu_face_w960.avi	0	j	BA	1.858
254	2	78	standard	AV	ba_base_face_w960.avi	1	j	BA	1.848
254	2	79	standard	AV	ba_base_face_w960.avi	1	j	BA	1.854
254	2	80	standard	AV	ba_base_face_w960.avi	1	j	BA	1.849
254	2	81	standard	AV	ba_base_face_w960.avi	1	j	BA	1.863
254	2	82	standard	AV	ba_base_face_w960.avi	1	j	BA	1.853
254	2	83	standard	AV	ba_base_face_w960.avi	1	j	BA	1.850
254	2	84	standard	AV	ba_base_face_w960.avi	1	j	BA	1.846
254	2	85	oddball	AV	ba_redu_face_w960.avi	0	j	BA	1.849
254	2	86	oddball	AV	ba_redu_face_w960.avi	0	none	none	999.000
254	2	87	oddball	AV	ba_redu_face_w960.avi	0	j	BA	0.229
254	2	88	oddball	AV	ba_redu_face_w960.avi	0	j	BA	1.848
254	2	89	standard	AV	ba_base_face_w960.avi	1	j	BA	1.858
254	2	90	oddball	AV	ba_redu_face_w960.avi	0	j	BA	1.855
254	2	91	oddball	AV	ba_redu_face_w960.avi	0	j	BA	1.855
254	2	92	standard	AV	ba_base_face_w960.avi	1	j	BA	1.907
254	2	93	oddball	AV	ba_redu_face_w960.avi	0	j	BA	1.856
254	2	94	oddball	AV	ba_redu_face_w960.avi	0	j	BA	1.912
254	2	95	standard	AV	ba_base_face_w960.avi	1	j	BA	1.860
254	2	96	oddball	AV	ba_redu_face_w960.avi	0	j	BA	1.968
254	2	97	oddball	AV	ba_redu_face_w960.avi	0	none	none	999.000
254	2	98	oddball	AV	ba_redu_face_w960.avi	0	none	none	999.000
254	2	99	oddball	AV	ba_redu_face_w960.avi	1	f	A	0.004
254	2	100	oddball	AV	ba_redu_face_w960.avi	0	j	BA	1.429
254	3	1	standard	PIX	ba_base_pix_w960.avi	0	none	none	999.000
254	3	2	standard	PIX	ba_base_pix_w960.avi	1	j	BA	0.457
254	3	3	standard	PIX	ba_base_pix_w960.avi	1	j	BA	1.366
254	3	4	oddball	PIX	ba_redu_pix_w960.avi	1	f	A	1.849
254	3	5	oddball	PIX	ba_redu_pix_w960.avi	1	f	A	1.852
254	3	6	oddball	PIX	ba_redu_pix_w960.avi	1	f	A	1.894
254	3	7	oddball	PIX	ba_redu_pix_w960.avi	1	f	A	1.512
254	3	8	standard	PIX	ba_base_pix_w960.avi	1	j	BA	1.850
254	3	9	standard	PIX	ba_base_pix_w960.avi	1	j	BA	1.854
254	3	10	standard	PIX	ba_base_pix_w960.avi	1	j	BA	1.851
254	3	11	oddball	PIX	ba_redu_pix_w960.avi	1	f	A	1.849
254	3	12	oddball	PIX	ba_redu_pix_w960.avi	1	f	A	1.850
254	3	13	oddball	PIX	ba_redu_pix_w960.avi	1	f	A	1.863
254	3	14	oddball	PIX	ba_redu_pix_w960.avi	1	f	A	1.852
254	3	15	standard	PIX	ba_base_pix_w960.avi	1	j	BA	1.860
254	3	16	oddball	PIX	ba_redu_pix_w960.avi	1	f	A	1.851
254	3	17	standard	PIX	ba_base_pix_w960.avi	1	j	BA	1.490
254	3	18	standard	PIX	ba_base_pix_w960.avi	1	j	BA	1.850
254	3	19	standard	PIX	ba_base_pix_w960.avi	1	j	BA	1.856
254	3	20	oddball	PIX	ba_redu_pix_w960.avi	1	f	A	1.849
254	3	21	oddball	PIX	ba_redu_pix_w960.avi	1	f	A	1.426
254	3	22	standard	PIX	ba_base_pix_w960.avi	1	j	BA	1.850
254	3	23	oddball	PIX	ba_redu_pix_w960.avi	1	f	A	1.518
254	3	24	standard	PIX	ba_base_pix_w960.avi	1	j	BA	1.534
254	3	25	standard	PIX	ba_base_pix_w960.avi	1	j	BA	1.537
254	3	26	standard	PIX	ba_base_pix_w960.avi	1	j	BA	1.489
254	3	27	oddball	PIX	ba_redu_pix_w960.avi	1	f	A	1.855
254	3	28	standard	PIX	ba_base_pix_w960.avi	1	j	BA	1.851
254	3	29	oddball	PIX	ba_redu_pix_w960.avi	1	f	A	1.856
254	3	30	standard	PIX	ba_base_pix_w960.avi	1	j	BA	1.422
254	3	31	standard	PIX	ba_base_pix_w960.avi	1	j	BA	1.854
254	3	32	oddball	PIX	ba_redu_pix_w960.avi	1	f	A	1.852
254	3	33	standard	PIX	ba_base_pix_w960.avi	1	j	BA	1.489
254	3	34	standard	PIX	ba_base_pix_w960.avi	1	j	BA	1.849
254	3	35	oddball	PIX	ba_redu_pix_w960.avi	1	f	A	1.852
254	3	36	standard	PIX	ba_base_pix_w960.avi	1	j	BA	1.850
254	3	37	standard	PIX	ba_base_pix_w960.avi	1	j	BA	1.854
254	3	38	oddball	PIX	ba_redu_pix_w960.avi	1	f	A	1.850
254	3	39	standard	PIX	ba_base_pix_w960.avi	1	j	BA	1.399
254	3	40	standard	PIX	ba_base_pix_w960.avi	1	j	BA	1.467
254	3	41	oddball	PIX	ba_redu_pix_w960.avi	1	f	A	1.855
254	3	42	standard	PIX	ba_base_pix_w960.avi	1	j	BA	1.865
254	3	43	oddball	PIX	ba_redu_pix_w960.avi	1	f	A	1.849
254	3	44	oddball	PIX	ba_redu_pix_w960.avi	1	f	A	1.854
254	3	45	oddball	PIX	ba_redu_pix_w960.avi	1	f	A	1.855
254	3	46	standard	PIX	ba_base_pix_w960.avi	1	j	BA	1.866
254	3	47	standard	PIX	ba_base_pix_w960.avi	1	j	BA	1.865
254	3	48	standard	PIX	ba_base_pix_w960.avi	1	j	BA	1.860
254	3	49	standard	PIX	ba_base_pix_w960.avi	1	j	BA	1.861
254	3	50	standard	PIX	ba_base_pix_w960.avi	1	j	BA	1.862
254	3	51	oddball	PIX	ba_redu_pix_w960.avi	1	f	A	1.537
254	3	52	oddball	PIX	ba_redu_pix_w960.avi	0	none	none	999.000
254	3	53	standard	PIX	ba_base_pix_w960.avi	0	f	A	0.004
254	3	54	oddball	PIX	ba_redu_pix_w960.avi	1	f	A	1.856
254	3	55	oddball	PIX	ba_redu_pix_w960.avi	1	f	A	1.865
254	3	56	oddball	PIX	ba_redu_pix_w960.avi	1	f	A	1.850
254	3	57	standard	PIX	ba_base_pix_w960.avi	1	j	BA	1.850
254	3	58	standard	PIX	ba_base_pix_w960.avi	1	j	BA	1.538
254	3	59	oddball	PIX	ba_redu_pix_w960.avi	1	f	A	2.026
254	3	60	standard	PIX	ba_base_pix_w960.avi	1	j	BA	1.863
254	3	61	oddball	PIX	ba_redu_pix_w960.avi	1	f	A	1.930
254	3	62	oddball	PIX	ba_redu_pix_w960.avi	1	f	A	1.877
254	3	63	oddball	PIX	ba_redu_pix_w960.avi	1	f	A	1.856
254	3	64	standard	PIX	ba_base_pix_w960.avi	1	j	BA	1.856
254	3	65	standard	PIX	ba_base_pix_w960.avi	1	j	BA	1.850
254	3	66	standard	PIX	ba_base_pix_w960.avi	1	j	BA	1.850
254	3	67	oddball	PIX	ba_redu_pix_w960.avi	1	f	A	1.857
254	3	68	standard	PIX	ba_base_pix_w960.avi	1	j	BA	1.854
254	3	69	oddball	PIX	ba_redu_pix_w960.avi	1	f	A	1.853
254	3	70	oddball	PIX	ba_redu_pix_w960.avi	1	f	A	1.861
254	3	71	oddball	PIX	ba_redu_pix_w960.avi	1	f	A	1.855
254	3	72	oddball	PIX	ba_redu_pix_w960.avi	1	f	A	1.854
254	3	73	oddball	PIX	ba_redu_pix_w960.avi	1	f	A	1.848
254	3	74	oddball	PIX	ba_redu_pix_w960.avi	1	f	A	1.850
254	3	75	standard	PIX	ba_base_pix_w960.avi	1	j	BA	1.856
254	3	76	standard	PIX	ba_base_pix_w960.avi	1	j	BA	1.493
254	3	77	oddball	PIX	ba_redu_pix_w960.avi	1	f	A	1.852
254	3	78	oddball	PIX	ba_redu_pix_w960.avi	1	f	A	1.851
254	3	79	standard	PIX	ba_base_pix_w960.avi	1	j	BA	1.860
254	3	80	standard	PIX	ba_base_pix_w960.avi	1	j	BA	1.855
254	3	81	oddball	PIX	ba_redu_pix_w960.avi	1	f	A	1.879
254	3	82	oddball	PIX	ba_redu_pix_w960.avi	1	f	A	1.853
254	3	83	standard	PIX	ba_base_pix_w960.avi	1	j	BA	1.854
254	3	84	standard	PIX	ba_base_pix_w960.avi	1	j	BA	1.857
254	3	85	oddball	PIX	ba_redu_pix_w960.avi	1	f	A	1.850
254	3	86	standard	PIX	ba_base_pix_w960.avi	1	j	BA	1.849
254	3	87	oddball	PIX	ba_redu_pix_w960.avi	1	f	A	1.862
254	3	88	oddball	PIX	ba_redu_pix_w960.avi	1	f	A	1.863
254	3	89	oddball	PIX	ba_redu_pix_w960.avi	1	f	A	1.849
254	3	90	oddball	PIX	ba_redu_pix_w960.avi	1	f	A	1.851
254	3	91	standard	PIX	ba_base_pix_w960.avi	1	j	BA	1.851
254	3	92	standard	PIX	ba_base_pix_w960.avi	1	j	BA	1.536
254	3	93	oddball	PIX	ba_redu_pix_w960.avi	1	f	A	1.851
254	3	94	standard	PIX	ba_base_pix_w960.avi	1	j	BA	2.041
254	3	95	standard	PIX	ba_base_pix_w960.avi	1	j	BA	1.862
254	3	96	standard	PIX	ba_base_pix_w960.avi	1	j	BA	1.863
254	3	97	oddball	PIX	ba_redu_pix_w960.avi	1	f	A	1.956
254	3	98	oddball	PIX	ba_redu_pix_w960.avi	1	f	A	1.850
254	3	99	oddball	PIX	ba_redu_pix_w960.avi	1	f	A	1.853
254	3	100	standard	PIX	ba_base_pix_w960.avi	0	none	none	999.000
