Subject	Block	Trial	StimType	StimCategory	Stimulus	ACC	RESP	Sound	RT
259	1	1	oddball	PL	ba_redu_pl_w288.avi	0	none	none	999.000
259	1	2	oddball	PL	ba_redu_pl_w288.avi	0	none	none	999.000
259	1	3	standard	PL	ba_base_pl_w288.avi	1	j	BA	0.175
259	1	4	oddball	PL	ba_redu_pl_w288.avi	0	none	none	999.000
259	1	5	standard	PL	ba_base_pl_w288.avi	1	j	BA	0.174
259	1	6	standard	PL	ba_base_pl_w288.avi	0	none	none	999.000
259	1	7	oddball	PL	ba_redu_pl_w288.avi	0	none	none	999.000
259	1	8	oddball	PL	ba_redu_pl_w288.avi	1	f	A	0.059
259	1	9	standard	PL	ba_base_pl_w288.avi	1	j	BA	1.895
259	1	10	oddball	PL	ba_redu_pl_w288.avi	1	f	A	1.894
259	1	11	oddball	PL	ba_redu_pl_w288.avi	0	j	BA	1.887
259	1	12	standard	PL	ba_base_pl_w288.avi	1	j	BA	1.895
259	1	13	standard	PL	ba_base_pl_w288.avi	1	j	BA	1.888
259	1	14	standard	PL	ba_base_pl_w288.avi	0	none	none	999.000
259	1	15	oddball	PL	ba_redu_pl_w288.avi	1	f	A	1.505
259	1	16	standard	PL	ba_base_pl_w288.avi	1	j	BA	1.578
259	1	17	oddball	PL	ba_redu_pl_w288.avi	1	f	A	1.477
259	1	18	standard	PL	ba_base_pl_w288.avi	1	j	BA	1.497
259	1	19	standard	PL	ba_base_pl_w288.avi	1	j	BA	1.443
259	1	20	standard	PL	ba_base_pl_w288.avi	1	j	BA	1.393
259	1	21	oddball	PL	ba_redu_pl_w288.avi	1	f	A	1.454
259	1	22	oddball	PL	ba_redu_pl_w288.avi	1	f	A	1.444
259	1	23	standard	PL	ba_base_pl_w288.avi	1	j	BA	1.415
259	1	24	oddball	PL	ba_redu_pl_w288.avi	0	j	BA	1.368
259	1	25	oddball	PL	ba_redu_pl_w288.avi	0	j	BA	1.542
259	1	26	standard	PL	ba_base_pl_w288.avi	1	j	BA	1.527
259	1	27	oddball	PL	ba_redu_pl_w288.avi	1	f	A	1.896
259	1	28	standard	PL	ba_base_pl_w288.avi	1	j	BA	1.425
259	1	29	oddball	PL	ba_redu_pl_w288.avi	1	f	A	1.449
259	1	30	standard	PL	ba_base_pl_w288.avi	1	j	BA	1.442
259	1	31	oddball	PL	ba_redu_pl_w288.avi	1	f	A	1.449
259	1	32	oddball	PL	ba_redu_pl_w288.avi	1	f	A	1.543
259	1	33	oddball	PL	ba_redu_pl_w288.avi	1	f	A	1.397
259	1	34	standard	PL	ba_base_pl_w288.avi	1	j	BA	1.464
259	1	35	oddball	PL	ba_redu_pl_w288.avi	1	f	A	1.879
259	1	36	standard	PL	ba_base_pl_w288.avi	1	j	BA	1.894
259	1	37	oddball	PL	ba_redu_pl_w288.avi	1	f	A	1.888
259	1	38	standard	PL	ba_base_pl_w288.avi	1	j	BA	1.896
259	1	39	standard	PL	ba_base_pl_w288.avi	1	j	BA	1.437
259	1	40	oddball	PL	ba_redu_pl_w288.avi	1	f	A	1.413
259	1	41	oddball	PL	ba_redu_pl_w288.avi	1	f	A	1.479
259	1	42	standard	PL	ba_base_pl_w288.avi	1	j	BA	1.258
259	1	43	oddball	PL	ba_redu_pl_w288.avi	1	f	A	1.374
259	1	44	standard	PL	ba_base_pl_w288.avi	0	none	none	999.000
259	1	45	oddball	PL	ba_redu_pl_w288.avi	0	j	BA	0.138
259	1	46	standard	PL	ba_base_pl_w288.avi	1	j	BA	1.396
259	1	47	standard	PL	ba_base_pl_w288.avi	1	j	BA	1.369
259	1	48	standard	PL	ba_base_pl_w288.avi	1	j	BA	1.379
259	1	49	oddball	PL	ba_redu_pl_w288.avi	1	f	A	1.885
259	1	50	oddball	PL	ba_redu_pl_w288.avi	1	f	A	1.561
259	1	51	oddball	PL	ba_redu_pl_w288.avi	1	f	A	1.523
259	1	52	standard	PL	ba_base_pl_w288.avi	1	j	BA	1.443
259	1	53	standard	PL	ba_base_pl_w288.avi	1	j	BA	1.216
259	1	54	oddball	PL	ba_redu_pl_w288.avi	1	f	A	1.530
259	1	55	standard	PL	ba_base_pl_w288.avi	1	j	BA	1.494
259	1	56	oddball	PL	ba_redu_pl_w288.avi	1	f	A	1.325
259	1	57	oddball	PL	ba_redu_pl_w288.avi	0	none	none	999.000
259	1	58	standard	PL	ba_base_pl_w288.avi	1	j	BA	1.883
259	1	59	oddball	PL	ba_redu_pl_w288.avi	1	f	A	1.883
259	1	60	standard	PL	ba_base_pl_w288.avi	0	k	none	1.502
259	1	61	standard	PL	ba_base_pl_w288.avi	1	j	BA	1.248
259	1	62	oddball	PL	ba_redu_pl_w288.avi	1	f	A	1.881
259	1	63	standard	PL	ba_base_pl_w288.avi	1	j	BA	1.895
259	1	64	standard	PL	ba_base_pl_w288.avi	1	j	BA	1.438
259	1	65	standard	PL	ba_base_pl_w288.avi	1	j	BA	1.456
259	1	66	oddball	PL	ba_redu_pl_w288.avi	1	f	A	1.496
259	1	67	standard	PL	ba_base_pl_w288.avi	1	j	BA	1.360
259	1	68	oddball	PL	ba_redu_pl_w288.avi	1	f	A	1.405
259	1	69	standard	PL	ba_base_pl_w288.avi	1	j	BA	1.893
259	1	70	oddball	PL	ba_redu_pl_w288.avi	0	none	none	999.000
259	1	71	oddball	PL	ba_redu_pl_w288.avi	1	f	A	1.363
259	1	72	oddball	PL	ba_redu_pl_w288.avi	1	f	A	1.571
259	1	73	oddball	PL	ba_redu_pl_w288.avi	0	j	BA	1.546
259	1	74	standard	PL	ba_base_pl_w288.avi	0	f	A	1.010
259	1	75	standard	PL	ba_base_pl_w288.avi	1	j	BA	1.560
259	1	76	oddball	PL	ba_redu_pl_w288.avi	1	f	A	1.416
259	1	77	oddball	PL	ba_redu_pl_w288.avi	0	j	BA	1.988
259	1	78	oddball	PL	ba_redu_pl_w288.avi	1	f	A	1.957
259	1	79	oddball	PL	ba_redu_pl_w288.avi	1	f	A	1.480
259	1	80	standard	PL	ba_base_pl_w288.avi	0	f	A	1.884
259	1	81	standard	PL	ba_base_pl_w288.avi	1	j	BA	1.546
259	1	82	standard	PL	ba_base_pl_w288.avi	1	j	BA	1.426
259	1	83	standard	PL	ba_base_pl_w288.avi	1	j	BA	1.895
259	1	84	oddball	PL	ba_redu_pl_w288.avi	1	f	A	1.888
259	1	85	standard	PL	ba_base_pl_w288.avi	1	j	BA	1.880
259	1	86	standard	PL	ba_base_pl_w288.avi	0	f	A	1.425
259	1	87	standard	PL	ba_base_pl_w288.avi	1	j	BA	1.509
259	1	88	standard	PL	ba_base_pl_w288.avi	1	j	BA	1.342
259	1	89	standard	PL	ba_base_pl_w288.avi	1	j	BA	1.296
259	1	90	oddball	PL	ba_redu_pl_w288.avi	1	f	A	1.471
259	1	91	oddball	PL	ba_redu_pl_w288.avi	1	f	A	1.892
259	1	92	standard	PL	ba_base_pl_w288.avi	1	j	BA	1.896
259	1	93	oddball	PL	ba_redu_pl_w288.avi	1	f	A	1.563
259	1	94	standard	PL	ba_base_pl_w288.avi	1	j	BA	1.561
259	1	95	standard	PL	ba_base_pl_w288.avi	0	f	A	1.439
259	1	96	oddball	PL	ba_redu_pl_w288.avi	1	f	A	1.881
259	1	97	oddball	PL	ba_redu_pl_w288.avi	1	f	A	1.392
259	1	98	standard	PL	ba_base_pl_w288.avi	1	j	BA	1.421
259	1	99	oddball	PL	ba_redu_pl_w288.avi	1	f	A	1.523
259	1	100	oddball	PL	ba_redu_pl_w288.avi	0	j	BA	1.363
259	2	1	oddball	PIX	ba_redu_pix_w960.avi	1	f	A	1.858
259	2	2	oddball	PIX	ba_redu_pix_w960.avi	1	f	A	1.424
259	2	3	standard	PIX	ba_base_pix_w960.avi	1	j	BA	1.850
259	2	4	standard	PIX	ba_base_pix_w960.avi	1	j	BA	1.458
259	2	5	standard	PIX	ba_base_pix_w960.avi	1	j	BA	1.373
259	2	6	oddball	PIX	ba_redu_pix_w960.avi	1	f	A	1.463
259	2	7	oddball	PIX	ba_redu_pix_w960.avi	0	j	BA	1.857
259	2	8	oddball	PIX	ba_redu_pix_w960.avi	1	f	A	1.325
259	2	9	oddball	PIX	ba_redu_pix_w960.avi	1	f	A	1.426
259	2	10	oddball	PIX	ba_redu_pix_w960.avi	0	j	BA	1.390
259	2	11	oddball	PIX	ba_redu_pix_w960.avi	1	f	A	1.856
259	2	12	standard	PIX	ba_base_pix_w960.avi	1	j	BA	1.853
259	2	13	standard	PIX	ba_base_pix_w960.avi	1	j	BA	1.858
259	2	14	oddball	PIX	ba_redu_pix_w960.avi	1	f	A	1.421
259	2	15	standard	PIX	ba_base_pix_w960.avi	1	j	BA	1.333
259	2	16	standard	PIX	ba_base_pix_w960.avi	1	j	BA	1.394
259	2	17	oddball	PIX	ba_redu_pix_w960.avi	1	f	A	1.461
259	2	18	standard	PIX	ba_base_pix_w960.avi	1	j	BA	1.429
259	2	19	standard	PIX	ba_base_pix_w960.avi	1	j	BA	1.370
259	2	20	oddball	PIX	ba_redu_pix_w960.avi	1	f	A	1.403
259	2	21	oddball	PIX	ba_redu_pix_w960.avi	0	j	BA	1.543
259	2	22	standard	PIX	ba_base_pix_w960.avi	1	j	BA	1.490
259	2	23	standard	PIX	ba_base_pix_w960.avi	1	j	BA	1.491
259	2	24	oddball	PIX	ba_redu_pix_w960.avi	1	f	A	1.504
259	2	25	standard	PIX	ba_base_pix_w960.avi	1	j	BA	1.444
259	2	26	standard	PIX	ba_base_pix_w960.avi	1	j	BA	1.303
259	2	27	oddball	PIX	ba_redu_pix_w960.avi	1	f	A	1.259
259	2	28	oddball	PIX	ba_redu_pix_w960.avi	1	f	A	1.367
259	2	29	standard	PIX	ba_base_pix_w960.avi	1	j	BA	1.544
259	2	30	oddball	PIX	ba_redu_pix_w960.avi	1	f	A	1.357
259	2	31	oddball	PIX	ba_redu_pix_w960.avi	1	f	A	1.454
259	2	32	standard	PIX	ba_base_pix_w960.avi	1	j	BA	1.394
259	2	33	oddball	PIX	ba_redu_pix_w960.avi	0	j	BA	1.865
259	2	34	oddball	PIX	ba_redu_pix_w960.avi	1	f	A	1.404
259	2	35	oddball	PIX	ba_redu_pix_w960.avi	1	f	A	1.301
259	2	36	standard	PIX	ba_base_pix_w960.avi	1	j	BA	1.407
259	2	37	oddball	PIX	ba_redu_pix_w960.avi	1	f	A	1.198
259	2	38	standard	PIX	ba_base_pix_w960.avi	1	j	BA	1.326
259	2	39	standard	PIX	ba_base_pix_w960.avi	1	j	BA	1.333
259	2	40	oddball	PIX	ba_redu_pix_w960.avi	1	f	A	1.327
259	2	41	oddball	PIX	ba_redu_pix_w960.avi	1	f	A	1.464
259	2	42	oddball	PIX	ba_redu_pix_w960.avi	1	f	A	1.850
259	2	43	standard	PIX	ba_base_pix_w960.avi	1	j	BA	1.324
259	2	44	oddball	PIX	ba_redu_pix_w960.avi	1	f	A	1.288
259	2	45	oddball	PIX	ba_redu_pix_w960.avi	1	f	A	1.466
259	2	46	standard	PIX	ba_base_pix_w960.avi	0	f	A	1.519
259	2	47	standard	PIX	ba_base_pix_w960.avi	1	j	BA	1.854
259	2	48	standard	PIX	ba_base_pix_w960.avi	1	j	BA	1.326
259	2	49	standard	PIX	ba_base_pix_w960.avi	1	j	BA	1.308
259	2	50	oddball	PIX	ba_redu_pix_w960.avi	0	j	BA	1.852
259	2	51	oddball	PIX	ba_redu_pix_w960.avi	1	f	A	1.322
259	2	52	standard	PIX	ba_base_pix_w960.avi	1	j	BA	1.399
259	2	53	oddball	PIX	ba_redu_pix_w960.avi	1	f	A	1.360
259	2	54	standard	PIX	ba_base_pix_w960.avi	1	j	BA	1.439
259	2	55	standard	PIX	ba_base_pix_w960.avi	1	j	BA	1.324
259	2	56	oddball	PIX	ba_redu_pix_w960.avi	1	f	A	1.467
259	2	57	oddball	PIX	ba_redu_pix_w960.avi	1	f	A	1.427
259	2	58	standard	PIX	ba_base_pix_w960.avi	1	j	BA	1.367
259	2	59	oddball	PIX	ba_redu_pix_w960.avi	0	j	BA	1.400
259	2	60	standard	PIX	ba_base_pix_w960.avi	1	j	BA	1.287
259	2	61	oddball	PIX	ba_redu_pix_w960.avi	0	j	BA	1.296
259	2	62	standard	PIX	ba_base_pix_w960.avi	1	j	BA	1.322
259	2	63	standard	PIX	ba_base_pix_w960.avi	1	j	BA	1.301
259	2	64	standard	PIX	ba_base_pix_w960.avi	1	j	BA	1.327
259	2	65	standard	PIX	ba_base_pix_w960.avi	1	j	BA	1.444
259	2	66	oddball	PIX	ba_redu_pix_w960.avi	1	f	A	1.336
259	2	67	standard	PIX	ba_base_pix_w960.avi	1	j	BA	1.324
259	2	68	oddball	PIX	ba_redu_pix_w960.avi	1	f	A	1.373
259	2	69	standard	PIX	ba_base_pix_w960.avi	1	j	BA	1.360
259	2	70	oddball	PIX	ba_redu_pix_w960.avi	1	f	A	1.393
259	2	71	standard	PIX	ba_base_pix_w960.avi	1	j	BA	1.355
259	2	72	oddball	PIX	ba_redu_pix_w960.avi	1	f	A	1.177
259	2	73	standard	PIX	ba_base_pix_w960.avi	1	j	BA	1.224
259	2	74	standard	PIX	ba_base_pix_w960.avi	1	j	BA	1.368
259	2	75	oddball	PIX	ba_redu_pix_w960.avi	1	f	A	1.332
259	2	76	oddball	PIX	ba_redu_pix_w960.avi	1	f	A	1.391
259	2	77	standard	PIX	ba_base_pix_w960.avi	1	j	BA	1.960
259	2	78	oddball	PIX	ba_redu_pix_w960.avi	1	f	A	1.431
259	2	79	standard	PIX	ba_base_pix_w960.avi	1	j	BA	1.854
259	2	80	standard	PIX	ba_base_pix_w960.avi	1	j	BA	1.371
259	2	81	standard	PIX	ba_base_pix_w960.avi	1	j	BA	1.286
259	2	82	standard	PIX	ba_base_pix_w960.avi	1	j	BA	1.399
259	2	83	oddball	PIX	ba_redu_pix_w960.avi	1	f	A	1.857
259	2	84	standard	PIX	ba_base_pix_w960.avi	1	j	BA	1.537
259	2	85	standard	PIX	ba_base_pix_w960.avi	1	j	BA	1.864
259	2	86	oddball	PIX	ba_redu_pix_w960.avi	1	f	A	1.516
259	2	87	standard	PIX	ba_base_pix_w960.avi	1	j	BA	1.399
259	2	88	oddball	PIX	ba_redu_pix_w960.avi	1	f	A	1.425
259	2	89	oddball	PIX	ba_redu_pix_w960.avi	0	j	BA	1.178
259	2	90	oddball	PIX	ba_redu_pix_w960.avi	1	f	A	1.357
259	2	91	standard	PIX	ba_base_pix_w960.avi	1	j	BA	1.397
259	2	92	oddball	PIX	ba_redu_pix_w960.avi	1	f	A	1.392
259	2	93	oddball	PIX	ba_redu_pix_w960.avi	1	f	A	1.333
259	2	94	standard	PIX	ba_base_pix_w960.avi	1	j	BA	1.353
259	2	95	standard	PIX	ba_base_pix_w960.avi	1	j	BA	1.490
259	2	96	standard	PIX	ba_base_pix_w960.avi	1	j	BA	1.297
259	2	97	oddball	PIX	ba_redu_pix_w960.avi	1	f	A	1.855
259	2	98	standard	PIX	ba_base_pix_w960.avi	1	j	BA	1.858
259	2	99	oddball	PIX	ba_redu_pix_w960.avi	1	f	A	1.379
259	2	100	oddball	PIX	ba_redu_pix_w960.avi	0	j	BA	1.466
259	3	1	oddball	AV	ba_redu_face_w960.avi	0	j	BA	1.996
259	3	2	standard	AV	ba_base_face_w960.avi	1	j	BA	1.462
259	3	3	standard	AV	ba_base_face_w960.avi	1	j	BA	1.258
259	3	4	standard	AV	ba_base_face_w960.avi	1	j	BA	1.188
259	3	5	standard	AV	ba_base_face_w960.avi	1	j	BA	1.288
259	3	6	oddball	AV	ba_redu_face_w960.avi	0	j	BA	1.278
259	3	7	oddball	AV	ba_redu_face_w960.avi	0	j	BA	1.260
259	3	8	standard	AV	ba_base_face_w960.avi	1	j	BA	1.088
259	3	9	standard	AV	ba_base_face_w960.avi	1	j	BA	1.156
259	3	10	oddball	AV	ba_redu_face_w960.avi	0	j	BA	0.920
259	3	11	oddball	AV	ba_redu_face_w960.avi	0	j	BA	1.043
259	3	12	standard	AV	ba_base_face_w960.avi	1	j	BA	1.261
259	3	13	oddball	AV	ba_redu_face_w960.avi	0	j	BA	1.852
259	3	14	oddball	AV	ba_redu_face_w960.avi	0	j	BA	1.223
259	3	15	oddball	AV	ba_redu_face_w960.avi	0	j	BA	1.133
259	3	16	standard	AV	ba_base_face_w960.avi	1	j	BA	1.847
259	3	17	oddball	AV	ba_redu_face_w960.avi	0	j	BA	1.196
259	3	18	standard	AV	ba_base_face_w960.avi	1	j	BA	1.222
259	3	19	standard	AV	ba_base_face_w960.avi	1	j	BA	1.528
259	3	20	oddball	AV	ba_redu_face_w960.avi	0	none	none	999.000
259	3	21	standard	AV	ba_base_face_w960.avi	1	j	BA	0.824
259	3	22	oddball	AV	ba_redu_face_w960.avi	0	j	BA	1.856
259	3	23	standard	AV	ba_base_face_w960.avi	1	j	BA	0.999
259	3	24	oddball	AV	ba_redu_face_w960.avi	0	j	BA	0.924
259	3	25	oddball	AV	ba_redu_face_w960.avi	0	j	BA	0.956
259	3	26	oddball	AV	ba_redu_face_w960.avi	0	j	BA	0.944
259	3	27	standard	AV	ba_base_face_w960.avi	1	j	BA	1.859
259	3	28	standard	AV	ba_base_face_w960.avi	1	j	BA	1.857
259	3	29	oddball	AV	ba_redu_face_w960.avi	0	j	BA	1.009
259	3	30	oddball	AV	ba_redu_face_w960.avi	0	j	BA	1.166
259	3	31	oddball	AV	ba_redu_face_w960.avi	0	j	BA	1.127
259	3	32	oddball	AV	ba_redu_face_w960.avi	0	j	BA	0.863
259	3	33	standard	AV	ba_base_face_w960.avi	1	j	BA	0.665
259	3	34	oddball	AV	ba_redu_face_w960.avi	0	j	BA	0.999
259	3	35	standard	AV	ba_base_face_w960.avi	1	j	BA	0.869
259	3	36	standard	AV	ba_base_face_w960.avi	1	j	BA	0.787
259	3	37	oddball	AV	ba_redu_face_w960.avi	0	j	BA	0.733
259	3	38	standard	AV	ba_base_face_w960.avi	1	j	BA	0.666
259	3	39	standard	AV	ba_base_face_w960.avi	1	j	BA	0.859
259	3	40	standard	AV	ba_base_face_w960.avi	1	j	BA	0.657
259	3	41	standard	AV	ba_base_face_w960.avi	1	j	BA	0.935
259	3	42	oddball	AV	ba_redu_face_w960.avi	0	j	BA	0.831
259	3	43	oddball	AV	ba_redu_face_w960.avi	0	j	BA	0.853
259	3	44	oddball	AV	ba_redu_face_w960.avi	0	j	BA	0.920
259	3	45	oddball	AV	ba_redu_face_w960.avi	0	j	BA	0.654
259	3	46	oddball	AV	ba_redu_face_w960.avi	0	j	BA	0.428
259	3	47	standard	AV	ba_base_face_w960.avi	1	j	BA	1.098
259	3	48	standard	AV	ba_base_face_w960.avi	1	j	BA	0.864
259	3	49	standard	AV	ba_base_face_w960.avi	1	j	BA	0.768
259	3	50	oddball	AV	ba_redu_face_w960.avi	0	j	BA	0.342
259	3	51	standard	AV	ba_base_face_w960.avi	1	j	BA	0.774
259	3	52	standard	AV	ba_base_face_w960.avi	1	j	BA	0.719
259	3	53	standard	AV	ba_base_face_w960.avi	0	none	none	999.000
259	3	54	oddball	AV	ba_redu_face_w960.avi	0	j	BA	0.321
259	3	55	standard	AV	ba_base_face_w960.avi	1	j	BA	0.343
259	3	56	standard	AV	ba_base_face_w960.avi	1	j	BA	0.485
259	3	57	standard	AV	ba_base_face_w960.avi	1	j	BA	0.601
259	3	58	oddball	AV	ba_redu_face_w960.avi	0	j	BA	0.919
259	3	59	standard	AV	ba_base_face_w960.avi	1	j	BA	0.595
259	3	60	standard	AV	ba_base_face_w960.avi	1	j	BA	0.444
259	3	61	standard	AV	ba_base_face_w960.avi	1	j	BA	0.564
259	3	62	oddball	AV	ba_redu_face_w960.avi	0	j	BA	0.719
259	3	63	oddball	AV	ba_redu_face_w960.avi	0	j	BA	0.598
259	3	64	standard	AV	ba_base_face_w960.avi	1	j	BA	0.863
259	3	65	standard	AV	ba_base_face_w960.avi	1	j	BA	0.792
259	3	66	standard	AV	ba_base_face_w960.avi	1	j	BA	0.632
259	3	67	oddball	AV	ba_redu_face_w960.avi	0	j	BA	0.767
259	3	68	standard	AV	ba_base_face_w960.avi	1	j	BA	0.866
259	3	69	standard	AV	ba_base_face_w960.avi	1	j	BA	0.536
259	3	70	standard	AV	ba_base_face_w960.avi	1	j	BA	0.519
259	3	71	standard	AV	ba_base_face_w960.avi	1	j	BA	0.959
259	3	72	oddball	AV	ba_redu_face_w960.avi	0	j	BA	0.871
259	3	73	oddball	AV	ba_redu_face_w960.avi	0	j	BA	0.938
259	3	74	oddball	AV	ba_redu_face_w960.avi	0	j	BA	0.722
259	3	75	oddball	AV	ba_redu_face_w960.avi	0	j	BA	0.952
259	3	76	standard	AV	ba_base_face_w960.avi	1	j	BA	1.443
259	3	77	oddball	AV	ba_redu_face_w960.avi	0	none	none	999.000
259	3	78	standard	AV	ba_base_face_w960.avi	0	f	A	1.848
259	3	79	oddball	AV	ba_redu_face_w960.avi	1	f	A	1.497
259	3	80	oddball	AV	ba_redu_face_w960.avi	0	none	none	999.000
259	3	81	standard	AV	ba_base_face_w960.avi	1	j	BA	1.861
259	3	82	oddball	AV	ba_redu_face_w960.avi	0	j	BA	1.157
259	3	83	oddball	AV	ba_redu_face_w960.avi	0	j	BA	1.854
259	3	84	standard	AV	ba_base_face_w960.avi	1	j	BA	1.288
259	3	85	oddball	AV	ba_redu_face_w960.avi	0	j	BA	1.206
259	3	86	oddball	AV	ba_redu_face_w960.avi	0	j	BA	1.858
259	3	87	standard	AV	ba_base_face_w960.avi	1	j	BA	1.365
259	3	88	standard	AV	ba_base_face_w960.avi	1	j	BA	1.353
259	3	89	oddball	AV	ba_redu_face_w960.avi	1	f	A	1.849
259	3	90	standard	AV	ba_base_face_w960.avi	1	j	BA	1.186
259	3	91	oddball	AV	ba_redu_face_w960.avi	0	j	BA	1.157
259	3	92	standard	AV	ba_base_face_w960.avi	1	j	BA	1.266
259	3	93	oddball	AV	ba_redu_face_w960.avi	1	f	A	1.855
259	3	94	oddball	AV	ba_redu_face_w960.avi	0	j	BA	1.356
259	3	95	standard	AV	ba_base_face_w960.avi	1	j	BA	1.430
259	3	96	oddball	AV	ba_redu_face_w960.avi	0	j	BA	1.384
259	3	97	oddball	AV	ba_redu_face_w960.avi	0	j	BA	1.190
259	3	98	standard	AV	ba_base_face_w960.avi	1	j	BA	1.085
259	3	99	oddball	AV	ba_redu_face_w960.avi	0	j	BA	1.026
259	3	100	oddball	AV	ba_redu_face_w960.avi	0	j	BA	0.961
