Subject	Block	Trial	StimType	StimCategory	Stimulus	ACC	RESP	Sound	RT
183	1	1	oddball	PL	ba_redu_pl_w288.avi	1	f	A	1.882
183	1	2	oddball	PL	ba_redu_pl_w288.avi	0	none	none	999.000
183	1	3	oddball	PL	ba_redu_pl_w288.avi	1	f	A	0.005
183	1	4	oddball	PL	ba_redu_pl_w288.avi	0	j	BA	2.088
183	1	5	standard	PL	ba_base_pl_w288.avi	0	none	none	999.000
183	1	6	standard	PL	ba_base_pl_w288.avi	1	j	BA	0.004
183	1	7	oddball	PL	ba_redu_pl_w288.avi	0	j	BA	2.056
183	1	8	standard	PL	ba_base_pl_w288.avi	0	none	none	999.000
183	1	9	oddball	PL	ba_redu_pl_w288.avi	0	j	BA	0.007
183	1	10	standard	PL	ba_base_pl_w288.avi	0	f	A	0.004
183	1	11	standard	PL	ba_base_pl_w288.avi	1	j	BA	2.010
183	1	12	oddball	PL	ba_redu_pl_w288.avi	1	f	A	1.924
183	1	13	standard	PL	ba_base_pl_w288.avi	1	j	BA	1.987
183	1	14	oddball	PL	ba_redu_pl_w288.avi	1	f	A	1.939
183	1	15	standard	PL	ba_base_pl_w288.avi	1	j	BA	1.920
183	1	16	standard	PL	ba_base_pl_w288.avi	1	j	BA	1.955
183	1	17	standard	PL	ba_base_pl_w288.avi	1	j	BA	1.890
183	1	18	standard	PL	ba_base_pl_w288.avi	1	j	BA	1.990
183	1	19	oddball	PL	ba_redu_pl_w288.avi	1	f	A	1.893
183	1	20	standard	PL	ba_base_pl_w288.avi	1	j	BA	1.936
183	1	21	oddball	PL	ba_redu_pl_w288.avi	1	f	A	1.888
183	1	22	oddball	PL	ba_redu_pl_w288.avi	0	j	BA	1.925
183	1	23	oddball	PL	ba_redu_pl_w288.avi	0	j	BA	1.951
183	1	24	standard	PL	ba_base_pl_w288.avi	1	j	BA	1.893
183	1	25	oddball	PL	ba_redu_pl_w288.avi	0	j	BA	1.943
183	1	26	oddball	PL	ba_redu_pl_w288.avi	1	f	A	1.921
183	1	27	oddball	PL	ba_redu_pl_w288.avi	0	j	BA	1.927
183	1	28	oddball	PL	ba_redu_pl_w288.avi	0	j	BA	1.923
183	1	29	standard	PL	ba_base_pl_w288.avi	1	j	BA	1.984
183	1	30	oddball	PL	ba_redu_pl_w288.avi	1	f	A	1.932
183	1	31	standard	PL	ba_base_pl_w288.avi	0	f	A	1.960
183	1	32	standard	PL	ba_base_pl_w288.avi	1	j	BA	1.904
183	1	33	oddball	PL	ba_redu_pl_w288.avi	1	f	A	1.905
183	1	34	oddball	PL	ba_redu_pl_w288.avi	1	f	A	1.941
183	1	35	oddball	PL	ba_redu_pl_w288.avi	1	f	A	1.963
183	1	36	oddball	PL	ba_redu_pl_w288.avi	1	f	A	2.002
183	1	37	standard	PL	ba_base_pl_w288.avi	1	j	BA	1.948
183	1	38	oddball	PL	ba_redu_pl_w288.avi	1	f	A	1.894
183	1	39	oddball	PL	ba_redu_pl_w288.avi	1	f	A	1.950
183	1	40	standard	PL	ba_base_pl_w288.avi	1	j	BA	1.891
183	1	41	standard	PL	ba_base_pl_w288.avi	1	j	BA	1.934
183	1	42	standard	PL	ba_base_pl_w288.avi	1	j	BA	2.004
183	1	43	standard	PL	ba_base_pl_w288.avi	1	j	BA	1.959
183	1	44	oddball	PL	ba_redu_pl_w288.avi	1	f	A	1.935
183	1	45	oddball	PL	ba_redu_pl_w288.avi	1	f	A	1.883
183	1	46	standard	PL	ba_base_pl_w288.avi	1	j	BA	1.897
183	1	47	standard	PL	ba_base_pl_w288.avi	1	j	BA	1.969
183	1	48	standard	PL	ba_base_pl_w288.avi	1	j	BA	1.965
183	1	49	oddball	PL	ba_redu_pl_w288.avi	1	f	A	1.934
183	1	50	standard	PL	ba_base_pl_w288.avi	1	j	BA	1.879
183	1	51	oddball	PL	ba_redu_pl_w288.avi	1	f	A	1.893
183	1	52	oddball	PL	ba_redu_pl_w288.avi	1	f	A	1.987
183	1	53	oddball	PL	ba_redu_pl_w288.avi	1	f	A	2.006
183	1	54	standard	PL	ba_base_pl_w288.avi	1	j	BA	1.924
183	1	55	standard	PL	ba_base_pl_w288.avi	1	j	BA	1.941
183	1	56	standard	PL	ba_base_pl_w288.avi	1	j	BA	1.915
183	1	57	oddball	PL	ba_redu_pl_w288.avi	1	f	A	1.883
183	1	58	standard	PL	ba_base_pl_w288.avi	1	j	BA	1.881
183	1	59	oddball	PL	ba_redu_pl_w288.avi	1	f	A	2.013
183	1	60	standard	PL	ba_base_pl_w288.avi	1	j	BA	1.998
183	1	61	standard	PL	ba_base_pl_w288.avi	1	j	BA	2.007
183	1	62	standard	PL	ba_base_pl_w288.avi	1	j	BA	1.904
183	1	63	standard	PL	ba_base_pl_w288.avi	1	j	BA	1.930
183	1	64	oddball	PL	ba_redu_pl_w288.avi	1	f	A	1.900
183	1	65	standard	PL	ba_base_pl_w288.avi	1	j	BA	1.951
183	1	66	oddball	PL	ba_redu_pl_w288.avi	1	f	A	1.983
183	1	67	oddball	PL	ba_redu_pl_w288.avi	1	f	A	2.045
183	1	68	oddball	PL	ba_redu_pl_w288.avi	0	j	BA	1.891
183	1	69	oddball	PL	ba_redu_pl_w288.avi	1	f	A	1.909
183	1	70	oddball	PL	ba_redu_pl_w288.avi	0	j	BA	1.901
183	1	71	standard	PL	ba_base_pl_w288.avi	1	j	BA	1.888
183	1	72	standard	PL	ba_base_pl_w288.avi	1	j	BA	1.896
183	1	73	standard	PL	ba_base_pl_w288.avi	1	j	BA	1.935
183	1	74	standard	PL	ba_base_pl_w288.avi	1	j	BA	1.895
183	1	75	standard	PL	ba_base_pl_w288.avi	1	j	BA	1.978
183	1	76	standard	PL	ba_base_pl_w288.avi	1	j	BA	1.939
183	1	77	oddball	PL	ba_redu_pl_w288.avi	1	f	A	1.902
183	1	78	oddball	PL	ba_redu_pl_w288.avi	1	f	A	1.889
183	1	79	standard	PL	ba_base_pl_w288.avi	1	j	BA	1.922
183	1	80	oddball	PL	ba_redu_pl_w288.avi	1	f	A	1.893
183	1	81	standard	PL	ba_base_pl_w288.avi	1	j	BA	1.891
183	1	82	oddball	PL	ba_redu_pl_w288.avi	1	f	A	1.892
183	1	83	oddball	PL	ba_redu_pl_w288.avi	1	f	A	1.504
183	1	84	oddball	PL	ba_redu_pl_w288.avi	1	f	A	1.425
183	1	85	oddball	PL	ba_redu_pl_w288.avi	1	f	A	1.425
183	1	86	standard	PL	ba_base_pl_w288.avi	1	j	BA	1.408
183	1	87	standard	PL	ba_base_pl_w288.avi	1	j	BA	1.420
183	1	88	standard	PL	ba_base_pl_w288.avi	1	j	BA	1.392
183	1	89	oddball	PL	ba_redu_pl_w288.avi	1	f	A	1.886
183	1	90	standard	PL	ba_base_pl_w288.avi	1	j	BA	1.342
183	1	91	standard	PL	ba_base_pl_w288.avi	1	j	BA	1.385
183	1	92	oddball	PL	ba_redu_pl_w288.avi	1	f	A	1.455
183	1	93	oddball	PL	ba_redu_pl_w288.avi	1	f	A	1.436
183	1	94	oddball	PL	ba_redu_pl_w288.avi	0	j	BA	1.339
183	1	95	oddball	PL	ba_redu_pl_w288.avi	1	f	A	1.390
183	1	96	oddball	PL	ba_redu_pl_w288.avi	1	f	A	1.391
183	1	97	standard	PL	ba_base_pl_w288.avi	1	j	BA	1.458
183	1	98	standard	PL	ba_base_pl_w288.avi	1	j	BA	1.417
183	1	99	standard	PL	ba_base_pl_w288.avi	1	j	BA	1.413
183	1	100	standard	PL	ba_base_pl_w288.avi	1	j	BA	1.442
183	2	1	standard	AV	ba_base_face_w960.avi	1	j	BA	1.855
183	2	2	standard	AV	ba_base_face_w960.avi	1	j	BA	2.003
183	2	3	standard	AV	ba_base_face_w960.avi	1	j	BA	1.857
183	2	4	standard	AV	ba_base_face_w960.avi	1	j	BA	1.510
183	2	5	standard	AV	ba_base_face_w960.avi	1	j	BA	1.488
183	2	6	oddball	AV	ba_redu_face_w960.avi	0	j	BA	1.432
183	2	7	standard	AV	ba_base_face_w960.avi	1	j	BA	1.527
183	2	8	oddball	AV	ba_redu_face_w960.avi	0	j	BA	1.455
183	2	9	standard	AV	ba_base_face_w960.avi	1	j	BA	1.491
183	2	10	oddball	AV	ba_redu_face_w960.avi	0	j	BA	1.422
183	2	11	oddball	AV	ba_redu_face_w960.avi	0	j	BA	1.494
183	2	12	oddball	AV	ba_redu_face_w960.avi	0	j	BA	1.478
183	2	13	oddball	AV	ba_redu_face_w960.avi	0	j	BA	1.848
183	2	14	standard	AV	ba_base_face_w960.avi	1	j	BA	1.424
183	2	15	oddball	AV	ba_redu_face_w960.avi	1	f	A	1.445
183	2	16	standard	AV	ba_base_face_w960.avi	1	j	BA	1.453
183	2	17	standard	AV	ba_base_face_w960.avi	0	none	none	999.000
183	2	18	oddball	AV	ba_redu_face_w960.avi	0	j	BA	0.005
183	2	19	oddball	AV	ba_redu_face_w960.avi	1	f	A	1.503
183	2	20	standard	AV	ba_base_face_w960.avi	1	j	BA	1.438
183	2	21	oddball	AV	ba_redu_face_w960.avi	1	f	A	1.436
183	2	22	oddball	AV	ba_redu_face_w960.avi	1	f	A	1.441
183	2	23	standard	AV	ba_base_face_w960.avi	1	j	BA	1.856
183	2	24	oddball	AV	ba_redu_face_w960.avi	1	f	A	1.861
183	2	25	standard	AV	ba_base_face_w960.avi	1	j	BA	1.443
183	2	26	standard	AV	ba_base_face_w960.avi	1	j	BA	1.365
183	2	27	oddball	AV	ba_redu_face_w960.avi	1	f	A	1.495
183	2	28	standard	AV	ba_base_face_w960.avi	1	j	BA	1.405
183	2	29	standard	AV	ba_base_face_w960.avi	1	j	BA	1.460
183	2	30	oddball	AV	ba_redu_face_w960.avi	1	f	A	1.425
183	2	31	oddball	AV	ba_redu_face_w960.avi	1	f	A	1.441
183	2	32	standard	AV	ba_base_face_w960.avi	1	j	BA	1.468
183	2	33	oddball	AV	ba_redu_face_w960.avi	1	f	A	1.467
183	2	34	oddball	AV	ba_redu_face_w960.avi	1	f	A	1.534
183	2	35	oddball	AV	ba_redu_face_w960.avi	1	f	A	1.443
183	2	36	standard	AV	ba_base_face_w960.avi	1	j	BA	1.517
183	2	37	oddball	AV	ba_redu_face_w960.avi	1	f	A	1.498
183	2	38	oddball	AV	ba_redu_face_w960.avi	1	f	A	1.848
183	2	39	standard	AV	ba_base_face_w960.avi	1	j	BA	1.862
183	2	40	standard	AV	ba_base_face_w960.avi	1	j	BA	1.510
183	2	41	oddball	AV	ba_redu_face_w960.avi	1	f	A	1.410
183	2	42	oddball	AV	ba_redu_face_w960.avi	1	f	A	1.488
183	2	43	oddball	AV	ba_redu_face_w960.avi	1	f	A	1.504
183	2	44	oddball	AV	ba_redu_face_w960.avi	1	f	A	1.504
183	2	45	oddball	AV	ba_redu_face_w960.avi	1	f	A	1.403
183	2	46	oddball	AV	ba_redu_face_w960.avi	1	f	A	1.363
183	2	47	standard	AV	ba_base_face_w960.avi	1	j	BA	1.495
183	2	48	oddball	AV	ba_redu_face_w960.avi	1	f	A	1.544
183	2	49	oddball	AV	ba_redu_face_w960.avi	1	f	A	1.487
183	2	50	standard	AV	ba_base_face_w960.avi	1	j	BA	1.431
183	2	51	standard	AV	ba_base_face_w960.avi	1	j	BA	1.433
183	2	52	standard	AV	ba_base_face_w960.avi	1	j	BA	1.430
183	2	53	oddball	AV	ba_redu_face_w960.avi	0	j	BA	1.407
183	2	54	standard	AV	ba_base_face_w960.avi	1	j	BA	1.460
183	2	55	oddball	AV	ba_redu_face_w960.avi	1	f	A	1.420
183	2	56	oddball	AV	ba_redu_face_w960.avi	0	j	BA	1.299
183	2	57	oddball	AV	ba_redu_face_w960.avi	0	j	BA	1.419
183	2	58	standard	AV	ba_base_face_w960.avi	1	j	BA	1.860
183	2	59	oddball	AV	ba_redu_face_w960.avi	0	j	BA	1.847
183	2	60	standard	AV	ba_base_face_w960.avi	1	j	BA	1.522
183	2	61	oddball	AV	ba_redu_face_w960.avi	0	j	BA	1.490
183	2	62	standard	AV	ba_base_face_w960.avi	1	j	BA	1.496
183	2	63	standard	AV	ba_base_face_w960.avi	1	j	BA	1.466
183	2	64	standard	AV	ba_base_face_w960.avi	1	j	BA	1.434
183	2	65	standard	AV	ba_base_face_w960.avi	1	j	BA	1.490
183	2	66	standard	AV	ba_base_face_w960.avi	1	j	BA	1.364
183	2	67	standard	AV	ba_base_face_w960.avi	1	j	BA	1.441
183	2	68	standard	AV	ba_base_face_w960.avi	1	j	BA	1.496
183	2	69	oddball	AV	ba_redu_face_w960.avi	0	j	BA	1.847
183	2	70	oddball	AV	ba_redu_face_w960.avi	1	f	A	1.498
183	2	71	standard	AV	ba_base_face_w960.avi	1	j	BA	1.420
183	2	72	standard	AV	ba_base_face_w960.avi	1	j	BA	1.373
183	2	73	oddball	AV	ba_redu_face_w960.avi	0	j	BA	1.496
183	2	74	standard	AV	ba_base_face_w960.avi	1	j	BA	1.476
183	2	75	oddball	AV	ba_redu_face_w960.avi	0	j	BA	1.437
183	2	76	oddball	AV	ba_redu_face_w960.avi	1	f	A	1.463
183	2	77	standard	AV	ba_base_face_w960.avi	1	j	BA	1.498
183	2	78	oddball	AV	ba_redu_face_w960.avi	1	f	A	1.458
183	2	79	oddball	AV	ba_redu_face_w960.avi	1	f	A	1.453
183	2	80	standard	AV	ba_base_face_w960.avi	1	j	BA	1.378
183	2	81	standard	AV	ba_base_face_w960.avi	1	j	BA	1.399
183	2	82	standard	AV	ba_base_face_w960.avi	1	j	BA	1.358
183	2	83	oddball	AV	ba_redu_face_w960.avi	1	f	A	1.543
183	2	84	standard	AV	ba_base_face_w960.avi	1	j	BA	1.501
183	2	85	standard	AV	ba_base_face_w960.avi	1	j	BA	1.538
183	2	86	standard	AV	ba_base_face_w960.avi	1	j	BA	1.474
183	2	87	standard	AV	ba_base_face_w960.avi	1	j	BA	1.434
183	2	88	oddball	AV	ba_redu_face_w960.avi	1	f	A	1.429
183	2	89	oddball	AV	ba_redu_face_w960.avi	1	f	A	1.333
183	2	90	standard	AV	ba_base_face_w960.avi	1	j	BA	1.479
183	2	91	oddball	AV	ba_redu_face_w960.avi	1	f	A	1.529
183	2	92	oddball	AV	ba_redu_face_w960.avi	1	f	A	1.862
183	2	93	standard	AV	ba_base_face_w960.avi	1	j	BA	1.529
183	2	94	oddball	AV	ba_redu_face_w960.avi	1	f	A	1.473
183	2	95	oddball	AV	ba_redu_face_w960.avi	1	f	A	1.433
183	2	96	standard	AV	ba_base_face_w960.avi	1	j	BA	1.420
183	2	97	standard	AV	ba_base_face_w960.avi	1	j	BA	1.498
183	2	98	oddball	AV	ba_redu_face_w960.avi	1	f	A	1.495
183	2	99	oddball	AV	ba_redu_face_w960.avi	1	f	A	1.462
183	2	100	standard	AV	ba_base_face_w960.avi	1	j	BA	1.498
183	3	1	oddball	PIX	ba_redu_pix_w960.avi	0	a	none	1.992
183	3	2	oddball	PIX	ba_redu_pix_w960.avi	1	f	A	1.858
183	3	3	oddball	PIX	ba_redu_pix_w960.avi	1	f	A	1.860
183	3	4	standard	PIX	ba_base_pix_w960.avi	1	j	BA	2.040
183	3	5	standard	PIX	ba_base_pix_w960.avi	1	j	BA	1.854
183	3	6	oddball	PIX	ba_redu_pix_w960.avi	1	f	A	1.918
183	3	7	standard	PIX	ba_base_pix_w960.avi	1	j	BA	1.852
183	3	8	oddball	PIX	ba_redu_pix_w960.avi	1	f	A	1.859
183	3	9	standard	PIX	ba_base_pix_w960.avi	1	j	BA	1.509
183	3	10	oddball	PIX	ba_redu_pix_w960.avi	1	f	A	1.849
183	3	11	oddball	PIX	ba_redu_pix_w960.avi	1	f	A	1.854
183	3	12	oddball	PIX	ba_redu_pix_w960.avi	1	f	A	1.849
183	3	13	standard	PIX	ba_base_pix_w960.avi	1	j	BA	1.850
183	3	14	oddball	PIX	ba_redu_pix_w960.avi	1	f	A	1.498
183	3	15	oddball	PIX	ba_redu_pix_w960.avi	1	f	A	1.862
183	3	16	oddball	PIX	ba_redu_pix_w960.avi	1	f	A	1.512
183	3	17	standard	PIX	ba_base_pix_w960.avi	1	j	BA	1.488
183	3	18	standard	PIX	ba_base_pix_w960.avi	1	j	BA	1.875
183	3	19	oddball	PIX	ba_redu_pix_w960.avi	1	f	A	1.862
183	3	20	standard	PIX	ba_base_pix_w960.avi	1	j	BA	1.542
183	3	21	standard	PIX	ba_base_pix_w960.avi	1	j	BA	1.849
183	3	22	standard	PIX	ba_base_pix_w960.avi	1	j	BA	1.862
183	3	23	oddball	PIX	ba_redu_pix_w960.avi	1	f	A	1.363
183	3	24	oddball	PIX	ba_redu_pix_w960.avi	1	f	A	1.459
183	3	25	oddball	PIX	ba_redu_pix_w960.avi	1	f	A	1.328
183	3	26	standard	PIX	ba_base_pix_w960.avi	1	j	BA	1.364
183	3	27	oddball	PIX	ba_redu_pix_w960.avi	0	j	BA	1.855
183	3	28	oddball	PIX	ba_redu_pix_w960.avi	1	f	A	1.849
183	3	29	oddball	PIX	ba_redu_pix_w960.avi	1	f	A	1.548
183	3	30	standard	PIX	ba_base_pix_w960.avi	1	j	BA	1.362
183	3	31	standard	PIX	ba_base_pix_w960.avi	1	j	BA	1.280
183	3	32	oddball	PIX	ba_redu_pix_w960.avi	1	f	A	1.296
183	3	33	standard	PIX	ba_base_pix_w960.avi	1	j	BA	1.336
183	3	34	standard	PIX	ba_base_pix_w960.avi	1	j	BA	1.862
183	3	35	oddball	PIX	ba_redu_pix_w960.avi	1	f	A	1.865
183	3	36	oddball	PIX	ba_redu_pix_w960.avi	1	f	A	1.848
183	3	37	standard	PIX	ba_base_pix_w960.avi	1	j	BA	1.850
183	3	38	standard	PIX	ba_base_pix_w960.avi	1	j	BA	1.861
183	3	39	standard	PIX	ba_base_pix_w960.avi	1	j	BA	1.849
183	3	40	standard	PIX	ba_base_pix_w960.avi	1	j	BA	1.493
183	3	41	standard	PIX	ba_base_pix_w960.avi	1	j	BA	1.399
183	3	42	standard	PIX	ba_base_pix_w960.avi	1	j	BA	1.203
183	3	43	oddball	PIX	ba_redu_pix_w960.avi	1	f	A	1.399
183	3	44	standard	PIX	ba_base_pix_w960.avi	1	j	BA	1.544
183	3	45	oddball	PIX	ba_redu_pix_w960.avi	1	f	A	1.859
183	3	46	oddball	PIX	ba_redu_pix_w960.avi	1	f	A	1.431
183	3	47	standard	PIX	ba_base_pix_w960.avi	1	j	BA	1.467
183	3	48	oddball	PIX	ba_redu_pix_w960.avi	1	f	A	1.435
183	3	49	standard	PIX	ba_base_pix_w960.avi	1	j	BA	1.377
183	3	50	standard	PIX	ba_base_pix_w960.avi	1	j	BA	1.308
183	3	51	standard	PIX	ba_base_pix_w960.avi	1	j	BA	1.860
183	3	52	oddball	PIX	ba_redu_pix_w960.avi	0	j	BA	1.530
183	3	53	standard	PIX	ba_base_pix_w960.avi	1	j	BA	1.523
183	3	54	oddball	PIX	ba_redu_pix_w960.avi	1	f	A	1.510
183	3	55	oddball	PIX	ba_redu_pix_w960.avi	1	f	A	1.853
183	3	56	oddball	PIX	ba_redu_pix_w960.avi	1	f	A	1.399
183	3	57	standard	PIX	ba_base_pix_w960.avi	1	j	BA	1.983
183	3	58	oddball	PIX	ba_redu_pix_w960.avi	1	f	A	1.860
183	3	59	standard	PIX	ba_base_pix_w960.avi	0	none	none	999.000
183	3	60	oddball	PIX	ba_redu_pix_w960.avi	0	j	BA	0.061
183	3	61	standard	PIX	ba_base_pix_w960.avi	1	j	BA	1.460
183	3	62	oddball	PIX	ba_redu_pix_w960.avi	1	f	A	2.021
183	3	63	standard	PIX	ba_base_pix_w960.avi	1	j	BA	1.488
183	3	64	standard	PIX	ba_base_pix_w960.avi	1	j	BA	1.858
183	3	65	standard	PIX	ba_base_pix_w960.avi	1	j	BA	1.378
183	3	66	oddball	PIX	ba_redu_pix_w960.avi	1	f	A	1.365
183	3	67	standard	PIX	ba_base_pix_w960.avi	1	j	BA	1.863
183	3	68	oddball	PIX	ba_redu_pix_w960.avi	1	f	A	1.860
183	3	69	oddball	PIX	ba_redu_pix_w960.avi	1	f	A	1.847
183	3	70	oddball	PIX	ba_redu_pix_w960.avi	1	f	A	1.473
183	3	71	standard	PIX	ba_base_pix_w960.avi	1	j	BA	1.849
183	3	72	oddball	PIX	ba_redu_pix_w960.avi	1	f	A	1.859
183	3	73	oddball	PIX	ba_redu_pix_w960.avi	1	f	A	1.516
183	3	74	standard	PIX	ba_base_pix_w960.avi	1	j	BA	1.367
183	3	75	oddball	PIX	ba_redu_pix_w960.avi	1	f	A	1.849
183	3	76	oddball	PIX	ba_redu_pix_w960.avi	1	f	A	1.533
183	3	77	standard	PIX	ba_base_pix_w960.avi	1	j	BA	1.848
183	3	78	standard	PIX	ba_base_pix_w960.avi	1	j	BA	1.493
183	3	79	standard	PIX	ba_base_pix_w960.avi	1	j	BA	1.335
183	3	80	standard	PIX	ba_base_pix_w960.avi	1	j	BA	1.462
183	3	81	standard	PIX	ba_base_pix_w960.avi	1	j	BA	1.269
183	3	82	oddball	PIX	ba_redu_pix_w960.avi	1	f	A	1.862
183	3	83	oddball	PIX	ba_redu_pix_w960.avi	1	f	A	1.486
183	3	84	standard	PIX	ba_base_pix_w960.avi	0	f	A	1.468
183	3	85	oddball	PIX	ba_redu_pix_w960.avi	1	f	A	1.864
183	3	86	standard	PIX	ba_base_pix_w960.avi	1	j	BA	1.425
183	3	87	standard	PIX	ba_base_pix_w960.avi	1	j	BA	2.020
183	3	88	standard	PIX	ba_base_pix_w960.avi	1	j	BA	1.863
183	3	89	standard	PIX	ba_base_pix_w960.avi	1	j	BA	1.848
183	3	90	standard	PIX	ba_base_pix_w960.avi	1	j	BA	1.910
183	3	91	oddball	PIX	ba_redu_pix_w960.avi	1	f	A	1.296
183	3	92	standard	PIX	ba_base_pix_w960.avi	1	j	BA	1.334
183	3	93	oddball	PIX	ba_redu_pix_w960.avi	1	f	A	1.858
183	3	94	oddball	PIX	ba_redu_pix_w960.avi	1	f	A	1.524
183	3	95	standard	PIX	ba_base_pix_w960.avi	1	j	BA	1.863
183	3	96	oddball	PIX	ba_redu_pix_w960.avi	1	f	A	1.379
183	3	97	oddball	PIX	ba_redu_pix_w960.avi	1	f	A	1.500
183	3	98	oddball	PIX	ba_redu_pix_w960.avi	1	f	A	1.849
183	3	99	standard	PIX	ba_base_pix_w960.avi	1	j	BA	1.863
183	3	100	oddball	PIX	ba_redu_pix_w960.avi	1	f	A	1.532
